time,seconds_elapsed,z,y,x
1700006751006885600,0.0178857421875,-0.796051025390625,-0.4600982666015625,-0.058685302734375
1700006751016831500,0.02783154296875,-0.7875823974609375,-0.4558258056640625,-0.0454864501953125
1700006751026776600,0.037776611328125,-0.77630615234375,-0.4530792236328125,-0.031768798828125
1700006751036721400,0.047721435546875,-0.76361083984375,-0.449615478515625,-0.019287109375
1700006751046666500,0.05766650390625,-0.760345458984375,-0.4477386474609375,-0.01092529296875
1700006751056611600,0.067611572265625,-0.7674713134765625,-0.4491119384765625,-0.0102691650390625
1700006751066557400,0.077557373046875,-0.78533935546875,-0.4480133056640625,-0.0135955810546875
1700006751076502500,0.08750244140625,-0.8121185302734375,-0.446868896484375,-0.0198211669921875
1700006751086447400,0.097447265625,-0.8471221923828125,-0.4457244873046875,-0.0226287841796875
1700006751096392700,0.107392822265625,-0.876373291015625,-0.444091796875,-0.024688720703125
1700006751106337500,0.117337646484375,-0.8975372314453125,-0.4428253173828125,-0.0227508544921875
1700006751116282400,0.127282470703125,-0.908966064453125,-0.4406280517578125,-0.0193328857421875
1700006751126228500,0.137228515625,-0.9124908447265625,-0.4409332275390625,-0.0221405029296875
1700006751136173600,0.147173583984375,-0.916290283203125,-0.4416961669921875,-0.025787353515625
1700006751146118400,0.157118408203125,-0.9212799072265625,-0.4410552978515625,-0.030426025390625
1700006751156063500,0.1670634765625,-0.9310150146484375,-0.43536376953125,-0.028106689453125
1700006751166008600,0.177008544921875,-0.9456939697265625,-0.435333251953125,-0.0164794921875
1700006751175954700,0.18695458984375,-0.958648681640625,-0.434051513671875,0.004180908203125
1700006751185899500,0.1968994140625,-0.958099365234375,-0.432861328125,0.022796630859375
1700006751195844400,0.20684423828125,-0.9477691650390625,-0.437042236328125,0.033477783203125
1700006751205789400,0.21678955078125,-0.9295806884765625,-0.44140625,0.0346527099609375
1700006751215734500,0.226734619140625,-0.9074859619140625,-0.4468994140625,0.031463623046875
1700006751225679400,0.236679443359375,-0.8986358642578125,-0.4519500732421875,0.0298919677734375
1700006751235625500,0.24662548828125,-0.89642333984375,-0.451690673828125,0.02764892578125
1700006751245570300,0.2565703125,-0.9007720947265625,-0.4521636962890625,0.0268402099609375
1700006751255515600,0.266515625,-0.90350341796875,-0.4542999267578125,0.0301361083984375
1700006751265460500,0.27646044921875,-0.897918701171875,-0.4577178955078125,0.0384979248046875
1700006751275405300,0.2864052734375,-0.88482666015625,-0.4605865478515625,0.0449066162109375
1700006751285351400,0.296351318359375,-0.86871337890625,-0.4644317626953125,0.0498504638671875
1700006751295296500,0.306296630859375,-0.8505706787109375,-0.466827392578125,0.0536346435546875
1700006751305241600,0.31624169921875,-0.8395233154296875,-0.466583251953125,0.0585784912109375
1700006751315186400,0.3261865234375,-0.8403472900390625,-0.462371826171875,0.0646820068359375
1700006751325131500,0.336131591796875,-0.8508453369140625,-0.4550323486328125,0.0683135986328125
1700006751335077600,0.34607763671875,-0.86517333984375,-0.4494476318359375,0.07366943359375
1700006751345022500,0.3560224609375,-0.8759613037109375,-0.4436187744140625,0.079620361328125
1700006751354967600,0.365967529296875,-0.8795318603515625,-0.433746337890625,0.0821380615234375
1700006751364912400,0.375912353515625,-0.8831939697265625,-0.427398681640625,0.0788421630859375
1700006751374857500,0.385857421875,-0.8883819580078125,-0.4208221435546875,0.076507568359375
1700006751384802600,0.395802490234375,-0.892974853515625,-0.4163818359375,0.075836181640625
1700006751394748400,0.40574853515625,-0.8971099853515625,-0.4111785888671875,0.07489013671875
1700006751404693500,0.415693603515625,-0.8936309814453125,-0.409271240234375,0.0701446533203125
1700006751414638600,0.425638671875,-0.8868408203125,-0.4119873046875,0.0643463134765625
1700006751424583400,0.43558349609375,-0.876678466796875,-0.416656494140625,0.05694580078125
1700006751434528500,0.445528564453125,-0.8682861328125,-0.4230804443359375,0.0448150634765625
1700006751444474400,0.455474365234375,-0.87548828125,-0.42987060546875,0.03271484375
1700006751454419700,0.465419677734375,-0.8881378173828125,-0.4361419677734375,0.02587890625
1700006751464364500,0.475364501953125,-0.8973541259765625,-0.4375762939453125,0.0220947265625
1700006751474309400,0.485309326171875,-0.9019317626953125,-0.4378814697265625,0.0165252685546875
1700006751484254700,0.495254638671875,-0.8936614990234375,-0.444854736328125,0.00958251953125
1700006751494199600,0.505199462890625,-0.8817291259765625,-0.4593505859375,0.0038604736328125
1700006751504145700,0.515145751953125,-0.8678436279296875,-0.475433349609375,-0.0060577392578125
1700006751514090500,0.525090576171875,-0.861785888671875,-0.4896392822265625,-0.02532958984375
1700006751524035300,0.535035400390625,-0.8689117431640625,-0.494110107421875,-0.0541839599609375
1700006751533980700,0.544980712890625,-0.88336181640625,-0.4915313720703125,-0.0934295654296875
1700006751543925500,0.554925537109375,-0.9056854248046875,-0.4816131591796875,-0.1383819580078125
1700006751553871600,0.56487158203125,-0.933990478515625,-0.4590301513671875,-0.1761932373046875
1700006751563816400,0.57481640625,-0.956268310546875,-0.4263916015625,-0.20269775390625
1700006751573761500,0.584761474609375,-0.9691009521484375,-0.39556884765625,-0.2122650146484375
1700006751583706600,0.59470654296875,-0.9733428955078125,-0.3753204345703125,-0.2053680419921875
1700006751593651500,0.6046513671875,-0.955078125,-0.3679351806640625,-0.184539794921875
1700006751603596500,0.614596435546875,-0.919830322265625,-0.3724212646484375,-0.1551513671875
1700006751613542700,0.624542724609375,-0.871826171875,-0.378265380859375,-0.13336181640625
1700006751623487500,0.634487548828125,-0.823211669921875,-0.389892578125,-0.1160888671875
1700006751633432600,0.6444326171875,-0.7884979248046875,-0.4119110107421875,-0.0908203125
1700006751643377700,0.654377685546875,-0.7734832763671875,-0.4345245361328125,-0.0643463134765625
1700006751653322500,0.664322509765625,-0.7771759033203125,-0.4665679931640625,-0.0565185546875
1700006751663268600,0.6742685546875,-0.796112060546875,-0.503143310546875,-0.0430908203125
1700006751673213400,0.68421337890625,-0.82403564453125,-0.538177490234375,-0.0401153564453125
1700006751683158300,0.694158203125,-0.8641357421875,-0.56488037109375,-0.04913330078125
1700006751693103600,0.704103515625,-0.911956787109375,-0.5797271728515625,-0.0585784912109375
1700006751703048400,0.71404833984375,-0.9618988037109375,-0.59405517578125,-0.0568389892578125
1700006751712993500,0.72399365234375,-0.9958343505859375,-0.599700927734375,-0.0540008544921875
1700006751722939400,0.733939453125,-1.0030059814453125,-0.600738525390625,-0.04632568359375
1700006751732884500,0.743884521484375,-0.9850616455078125,-0.5978240966796875,-0.03924560546875
1700006751742829600,0.75382958984375,-0.9502105712890625,-0.59136962890625,-0.0276031494140625
1700006751752774400,0.7637744140625,-0.9092254638671875,-0.58306884765625,-0.0063018798828125
1700006751762719700,0.7737197265625,-0.87322998046875,-0.56793212890625,0.01934814453125
1700006751772665600,0.78366552734375,-0.847930908203125,-0.556732177734375,0.0387115478515625
1700006751782610400,0.7936103515625,-0.8348541259765625,-0.54638671875,0.0398101806640625
1700006751792555500,0.803555419921875,-0.8294525146484375,-0.53369140625,0.0375518798828125
1700006751802500600,0.81350048828125,-0.8297119140625,-0.5190582275390625,0.033843994140625
1700006751812445400,0.823445556640625,-0.8200531005859375,-0.502227783203125,0.03082275390625
1700006751822390500,0.833390625,-0.798065185546875,-0.4914398193359375,0.0313873291015625
1700006751832336400,0.84333642578125,-0.77630615234375,-0.486602783203125,0.0347747802734375
1700006751842281500,0.853281494140625,-0.762054443359375,-0.482757568359375,0.041839599609375
1700006751852226600,0.8632265625,-0.76324462890625,-0.4848785400390625,0.0540008544921875
1700006751862171400,0.87317138671875,-0.78271484375,-0.483489990234375,0.0488739013671875
1700006751872116500,0.883116455078125,-0.7997894287109375,-0.4804229736328125,0.0349273681640625
1700006751882062300,0.893062255859375,-0.8189697265625,-0.4900665283203125,0.0233917236328125
1700006751892007700,0.903007568359375,-0.834747314453125,-0.509490966796875,0.0058135986328125
1700006751901952500,0.912952392578125,-0.849853515625,-0.52984619140625,-0.013427734375
1700006751911897300,0.9228974609375,-0.87225341796875,-0.545928955078125,-0.036163330078125
1700006751921842700,0.9328427734375,-0.895751953125,-0.560272216796875,-0.05657958984375
1700006751931787500,0.94278759765625,-0.92431640625,-0.57415771484375,-0.06640625
1700006751941733600,0.952733642578125,-0.9513702392578125,-0.5784759521484375,-0.0745086669921875
1700006751951678500,0.962678466796875,-0.9653472900390625,-0.58209228515625,-0.076507568359375
1700006751961623600,0.97262353515625,-0.975860595703125,-0.5867156982421875,-0.0660858154296875
1700006751971569400,0.9825693359375,-0.980377197265625,-0.590087890625,-0.05413818359375
1700006751981514200,0.99251416015625,-0.98663330078125,-0.5897674560546875,-0.04534912109375
1700006751991460400,1.00246044921875,-0.9867095947265625,-0.59552001953125,-0.03387451171875
1700006752001405200,1.0124052734375,-0.976959228515625,-0.6078643798828125,-0.010711669921875
1700006752011350300,1.022350341796875,-0.9721221923828125,-0.6258087158203125,0.0192108154296875
1700006752021295400,1.03229541015625,-0.975616455078125,-0.6382293701171875,0.0409088134765625
1700006752031240200,1.042240234375,-0.974578857421875,-0.636077880859375,0.0467681884765625
1700006752041185300,1.052185302734375,-0.9707794189453125,-0.622711181640625,0.03790283203125
1700006752051131100,1.062131103515625,-0.9544219970703125,-0.6064453125,0.0206451416015625
1700006752061076200,1.072076171875,-0.924530029296875,-0.587890625,0.0084381103515625
1700006752071021300,1.082021240234375,-0.8859100341796875,-0.5757293701171875,0.0033721923828125
1700006752080966100,1.091966064453125,-0.8502960205078125,-0.5648345947265625,0.0071868896484375
1700006752090911200,1.1019111328125,-0.8237762451171875,-0.5485992431640625,0.0130462646484375
1700006752100857300,1.111857421875,-0.8115081787109375,-0.5367584228515625,0.019287109375
1700006752110802200,1.12180224609375,-0.822174072265625,-0.5280609130859375,0.02630615234375
1700006752120747300,1.131747314453125,-0.857513427734375,-0.51104736328125,0.019683837890625
1700006752130692400,1.1416923828125,-0.929473876953125,-0.4837188720703125,0.00390625
1700006752140637200,1.15163720703125,-1.0150604248046875,-0.4449920654296875,-0.001220703125
1700006752150582300,1.161582275390625,-1.0888671875,-0.3984527587890625,0.0086517333984375
1700006752160528100,1.171528076171875,-1.1537933349609375,-0.352020263671875,0.028717041015625
1700006752170473200,1.18147314453125,-1.18914794921875,-0.3126373291015625,0.0432586669921875
1700006752180418300,1.191418212890625,-1.195587158203125,-0.30126953125,0.056488037109375
1700006752190363100,1.201363037109375,-1.2201385498046875,-0.28375244140625,0.0810089111328125
1700006752200308200,1.21130810546875,-1.263397216796875,-0.251068115234375,0.12603759765625
1700006752210254000,1.221254150390625,-1.332672119140625,-0.234710693359375,0.1900787353515625
1700006752220199400,1.231199462890625,-1.40252685546875,-0.240509033203125,0.2359161376953125
1700006752230144300,1.241144287109375,-1.4060211181640625,-0.257415771484375,0.255859375
1700006752240089000,1.251089111328125,-1.32867431640625,-0.2812042236328125,0.233367919921875
1700006752250034400,1.261034423828125,-1.2296295166015625,-0.3157806396484375,0.182342529296875
1700006752259980300,1.270980224609375,-1.1560516357421875,-0.3685760498046875,0.1102752685546875
1700006752269925400,1.28092529296875,-1.1019287109375,-0.4202728271484375,0.0132598876953125
1700006752279870200,1.2908701171875,-1.0629425048828125,-0.460174560546875,-0.0565032958984375
1700006752289815300,1.300815185546875,-1.0345458984375,-0.53271484375,-0.0733489990234375
1700006752299760400,1.310760498046875,-0.9620513916015625,-0.588958740234375,-0.08734130859375
1700006752309705200,1.320705322265625,-0.7961578369140625,-0.6255950927734375,0.001373291015625
1700006752319651300,1.3306513671875,-0.59686279296875,-0.6972503662109375,0.20562744140625
1700006752329596200,1.34059619140625,-0.4221038818359375,-0.670928955078125,0.1598358154296875
1700006752339541200,1.350541259765625,-0.2921295166015625,-0.593017578125,-0.062957763671875
1700006752349486300,1.360486328125,-0.23114013671875,-0.60870361328125,-0.17535400390625
1700006752359431200,1.37043115234375,-0.2052001953125,-0.676025390625,-0.223175048828125
1700006752369376300,1.380376220703125,-0.21575927734375,-0.725799560546875,-0.2466888427734375
1700006752379322400,1.390322265625,-0.21380615234375,-0.7291717529296875,-0.2582550048828125
1700006752389267200,1.40026708984375,-0.20660400390625,-0.71234130859375,-0.2662353515625
1700006752399212300,1.41021240234375,-0.1710662841796875,-0.723297119140625,-0.2883758544921875
1700006752409157400,1.420157470703125,-0.0944671630859375,-0.7542572021484375,-0.316986083984375
1700006752419102200,1.430102294921875,-0.02783203125,-0.799713134765625,-0.3127288818359375
1700006752429048300,1.44004833984375,0.027923583984375,-0.839599609375,-0.2737884521484375
1700006752438993200,1.4499931640625,0.018585205078125,-0.8234405517578125,-0.2329864501953125
1700006752448938500,1.4599384765625,0.002899169921875,-0.7518768310546875,-0.2608642578125
1700006752458883300,1.46988330078125,0.0321807861328125,-0.7064666748046875,-0.3264617919921875
1700006752468828200,1.479828125,0.07037353515625,-0.7177276611328125,-0.3607940673828125
1700006752478773200,1.489773193359375,0.12054443359375,-0.74542236328125,-0.363494873046875
1700006752488719000,1.499718994140625,0.171905517578125,-0.758819580078125,-0.370513916015625
1700006752498664400,1.50966455078125,0.2158355712890625,-0.78717041015625,-0.401458740234375
1700006752508609300,1.519609375,0.2784423828125,-0.8315887451171875,-0.43218994140625
1700006752518554000,1.52955419921875,0.3301849365234375,-0.8349609375,-0.406097412109375
1700006752528499500,1.53949951171875,0.318756103515625,-0.797760009765625,-0.35919189453125
1700006752538445300,1.5494453125,0.240203857421875,-0.7493438720703125,-0.276611328125
1700006752548390100,1.55939013671875,0.420257568359375,-0.8081207275390625,-0.22222900390625
1700006752558335200,1.569335205078125,0.6346893310546875,-0.87799072265625,-0.1540374755859375
1700006752568280300,1.5792802734375,0.862701416015625,-0.865509033203125,-0.0588531494140625
1700006752578225400,1.589225341796875,1.232818603515625,-0.8386688232421875,0.08612060546875
1700006752588170200,1.599170166015625,1.7163238525390625,-0.854278564453125,0.24578857421875
1700006752598116000,1.6091162109375,2.0279083251953125,-0.8783416748046875,0.3296051025390625
1700006752608061400,1.6190615234375,1.5416717529296875,-0.90020751953125,0.242919921875
1700006752618006300,1.62900634765625,0.61749267578125,-0.948486328125,0.1376190185546875
1700006752627951400,1.638951416015625,-0.0528717041015625,-0.99395751953125,0.162750244140625
1700006752637896200,1.648896240234375,-0.4635772705078125,-0.990020751953125,0.2185516357421875
1700006752647842000,1.658842041015625,-0.6652679443359375,-1.019775390625,0.1965179443359375
1700006752657787400,1.668787353515625,-0.651214599609375,-1.11541748046875,0.081451416015625
1700006752667732200,1.678732177734375,-0.410980224609375,-1.1827850341796875,-0.055938720703125
1700006752677677000,1.688677001953125,0.075531005859375,-1.224151611328125,-0.124237060546875
1700006752687622400,1.698622314453125,0.6838836669921875,-1.2468109130859375,-0.0663604736328125
1700006752697567200,1.708567138671875,1.0290374755859375,-1.2149505615234375,0.0534210205078125
1700006752707513300,1.718513427734375,0.74139404296875,-1.1734619140625,0.0886077880859375
1700006752717458200,1.728458251953125,0.32012939453125,-1.1127166748046875,0.0197296142578125
1700006752727403300,1.7384033203125,0.0453338623046875,-1.095977783203125,-0.0583343505859375
1700006752737348400,1.748348388671875,-0.0136566162109375,-1.0657501220703125,-0.0882720947265625
1700006752747293200,1.758293212890625,0.07427978515625,-0.9961700439453125,-0.1066436767578125
1700006752757239300,1.7682392578125,0.151641845703125,-0.9416961669921875,-0.1455078125
1700006752767184400,1.778184326171875,0.2246551513671875,-0.8951416015625,-0.177337646484375
1700006752777129200,1.788129150390625,0.2753143310546875,-0.850555419921875,-0.195709228515625
1700006752787074300,1.79807421875,0.2438812255859375,-0.806732177734375,-0.1739501953125
1700006752797019100,1.80801904296875,0.1597442626953125,-0.7981719970703125,-0.13916015625
1700006752806964200,1.817964111328125,0.10601806640625,-0.8362579345703125,-0.1296844482421875
1700006752816910300,1.827910400390625,0.1770477294921875,-0.8941497802734375,-0.1390380859375
1700006752826855200,1.837855224609375,0.25054931640625,-0.9399566650390625,-0.1153717041015625
1700006752836800300,1.84780029296875,0.345855712890625,-0.9315948486328125,-0.148406982421875
1700006752846745300,1.857745361328125,0.3897705078125,-0.973236083984375,-0.123504638671875
1700006752856690200,1.867690185546875,0.2928009033203125,-1.0798797607421875,-0.0011138916015625
1700006752866636300,1.87763623046875,0.2944793701171875,-1.1974945068359375,0.05633544921875
1700006752876581000,1.8875810546875,0.3040313720703125,-1.1591033935546875,-0.0050506591796875
1700006752886526500,1.8975263671875,0.3612060546875,-1.1371307373046875,-0.086273193359375
1700006752896471300,1.90747119140625,0.3846893310546875,-1.1692047119140625,-0.0886688232421875
1700006752906416000,1.917416015625,0.4383697509765625,-1.149444580078125,-0.0595245361328125
1700006752916361200,1.927361328125,0.4864044189453125,-1.0255126953125,-0.136810302734375
1700006752926307300,1.937307373046875,0.3546600341796875,-0.8958892822265625,-0.13922119140625
1700006752936252400,1.94725244140625,0.275054931640625,-0.7904510498046875,-0.128631591796875
1700006752946197200,1.957197265625,0.3662567138671875,-0.8055877685546875,0.0352783203125
1700006752956142000,1.96714208984375,0.2873077392578125,-0.9181060791015625,0.08349609375
1700006752966086700,1.977086669921875,0.2987213134765625,-0.943450927734375,-0.0347900390625
1700006752976031500,1.987031494140625,0.3395843505859375,-0.880767822265625,-0.18731689453125
1700006752985977600,1.9969775390625,0.2931060791015625,-0.81134033203125,-0.271759033203125
1700006752995922700,2.006922607421875,0.2210540771484375,-0.7729644775390625,-0.274261474609375
1700006753005867500,2.016867431640625,0.170013427734375,-0.7484130859375,-0.23681640625
1700006753015812600,2.0268125,0.203826904296875,-0.753936767578125,-0.1824493408203125
1700006753025757400,2.03675732421875,0.2317047119140625,-0.7828521728515625,-0.1657257080078125
1700006753035703600,2.04670361328125,0.2283782958984375,-0.7991180419921875,-0.154327392578125
1700006753045648600,2.056648681640625,0.2472381591796875,-0.8013458251953125,-0.14300537109375
1700006753055593500,2.066593505859375,0.2388763427734375,-0.8257293701171875,-0.1159210205078125
1700006753065538600,2.07653857421875,0.212310791015625,-0.829315185546875,-0.08587646484375
1700006753075483600,2.086483642578125,0.21820068359375,-0.844390869140625,-0.0815887451171875
1700006753085428700,2.0964287109375,0.20977783203125,-0.8672943115234375,-0.118072509765625
1700006753095374600,2.10637451171875,0.2211456298828125,-0.882354736328125,-0.1166229248046875
1700006753105319400,2.1163193359375,0.2021026611328125,-0.90155029296875,-0.0615081787109375
1700006753115264800,2.1262646484375,0.2008209228515625,-0.92333984375,-0.035736083984375
1700006753125209600,2.136209716796875,0.2323760986328125,-0.9464263916015625,-0.054290771484375
1700006753135154400,2.146154541015625,0.2423248291015625,-0.93780517578125,-0.092803955078125
1700006753145099500,2.156099609375,0.2151947021484375,-0.93914794921875,-0.11871337890625
1700006753155045600,2.166045654296875,0.186248779296875,-0.921966552734375,-0.1040496826171875
1700006753164990700,2.17599072265625,0.167755126953125,-0.9176483154296875,-0.07318115234375
1700006753174935600,2.185935546875,0.1725921630859375,-0.924652099609375,-0.0330810546875
1700006753184880400,2.19588037109375,0.1890411376953125,-0.9586334228515625,-0.01934814453125
1700006753194825700,2.20582568359375,0.19342041015625,-0.9777069091796875,-0.033294677734375
1700006753204771600,2.215771484375,0.19842529296875,-0.98492431640625,-0.04119873046875
1700006753214716700,2.225716552734375,0.1710052490234375,-0.9922943115234375,-0.08673095703125
1700006753224661500,2.23566162109375,0.114898681640625,-1.0106964111328125,-0.1381683349609375
1700006753234606600,2.245606689453125,0.11328125,-1.0196990966796875,-0.1603546142578125
1700006753244551700,2.2555517578125,0.1616973876953125,-1.051727294921875,-0.1516571044921875
1700006753254497500,2.26549755859375,0.197357177734375,-1.1154937744140625,-0.1130218505859375
1700006753264442600,2.275442626953125,0.210784912109375,-1.1726226806640625,-0.067352294921875
1700006753274387700,2.2853876953125,0.212249755859375,-1.2119140625,-0.0025482177734375
1700006753284332500,2.29533251953125,0.17803955078125,-1.241485595703125,0.0240631103515625
1700006753294277600,2.305277587890625,0.128997802734375,-1.2618255615234375,-0.0008544921875
1700006753304222500,2.315222412109375,0.121673583984375,-1.284637451171875,-0.0216827392578125
1700006753314168600,2.32516845703125,0.1708526611328125,-1.3343505859375,-0.050018310546875
1700006753324113700,2.33511376953125,0.2514801025390625,-1.4017791748046875,-0.0779876708984375
1700006753334058500,2.34505859375,0.231597900390625,-1.488922119140625,-0.1599273681640625
1700006753344003600,2.355003662109375,-0.2320404052734375,-1.540985107421875,-0.4311676025390625
1700006753353948700,2.36494873046875,0.571197509765625,-1.35540771484375,-0.021942138671875
1700006753363893500,2.3748935546875,0.21923828125,-1.5196685791015625,-0.1378631591796875
1700006753373839600,2.384839599609375,0.073699951171875,-1.6189727783203125,-0.1350555419921875
1700006753383784400,2.394784423828125,0.1050262451171875,-1.65020751953125,-0.02069091796875
1700006753393729800,2.404729736328125,0.0333404541015625,-1.59918212890625,0.055572509765625
1700006753403674600,2.414674560546875,-0.07135009765625,-1.5061492919921875,0.10015869140625
1700006753413619500,2.424619384765625,-0.256927490234375,-1.41119384765625,0.1849212646484375
1700006753423565600,2.434565673828125,-0.2692718505859375,-1.266082763671875,0.2484893798828125
1700006753433510700,2.4445107421875,-0.191070556640625,-1.13677978515625,0.26806640625
1700006753443455700,2.454455810546875,-0.2607574462890625,-1.0726470947265625,0.2585296630859375
1700006753453400600,2.464400634765625,-0.249725341796875,-0.9976654052734375,0.2777557373046875
1700006753463345400,2.474345458984375,-0.173431396484375,-0.9245452880859375,0.26025390625
1700006753473290800,2.484290771484375,-0.1334381103515625,-0.8847808837890625,0.2069854736328125
1700006753483236600,2.494236572265625,-0.1319122314453125,-0.845001220703125,0.1963348388671875
1700006753493181700,2.504181640625,-0.12640380859375,-0.81396484375,0.18524169921875
1700006753503126500,2.51412646484375,-0.055145263671875,-0.8708648681640625,0.106231689453125
1700006753513071600,2.524071533203125,-0.0780487060546875,-0.85443115234375,0.1413421630859375
1700006753523016700,2.5340166015625,-0.0354766845703125,-0.8705596923828125,0.12445068359375
1700006753532961500,2.54396142578125,0.0150604248046875,-0.8879241943359375,0.101104736328125
1700006753542907600,2.55390771484375,0.061004638671875,-0.8848876953125,0.082794189453125
1700006753552852700,2.563852783203125,0.09814453125,-0.86151123046875,0.081939697265625
1700006753562797600,2.573797607421875,0.11187744140625,-0.84246826171875,0.0877685546875
1700006753572742700,2.58374267578125,0.1358642578125,-0.828704833984375,0.07818603515625
1700006753582687700,2.593687744140625,0.0573883056640625,-0.822509765625,0.01593017578125
1700006753592633600,2.603633544921875,0.1309967041015625,-0.8042755126953125,0.0876312255859375
1700006753602578700,2.61357861328125,0.1689300537109375,-0.8122711181640625,0.0613861083984375
1700006753612523500,2.6235234375,0.118408203125,-0.817474365234375,0.0543365478515625
1700006753622468600,2.633468505859375,0.1188507080078125,-0.802490234375,0.0376739501953125
1700006753632413700,2.64341357421875,0.104766845703125,-0.7916259765625,0.04461669921875
1700006753642358500,2.653358642578125,0.088958740234375,-0.779083251953125,0.05242919921875
1700006753652304600,2.6633046875,0.0763092041015625,-0.778289794921875,0.0509033203125
1700006753662249500,2.67324951171875,0.0724945068359375,-0.77490234375,0.043914794921875
1700006753672194600,2.683194580078125,0.0658111572265625,-0.758758544921875,0.037628173828125
1700006753682139600,2.6931396484375,0.0472869873046875,-0.7439422607421875,0.0363922119140625
1700006753692084500,2.70308447265625,0.03387451171875,-0.7343292236328125,0.018310546875
1700006753702029800,2.71302978515625,0.044403076171875,-0.7303314208984375,0.008087158203125
1700006753711975700,2.7229755859375,0.0516204833984375,-0.7232818603515625,0.0094757080078125
1700006753721920500,2.73292041015625,0.0467071533203125,-0.7119598388671875,0.0028839111328125
1700006753731865600,2.742865478515625,0.0289306640625,-0.7022857666015625,-0.0017547607421875
1700006753741810700,2.752810791015625,-0.0105438232421875,-0.70233154296875,-0.011322021484375
1700006753751755800,2.762755859375,-0.0366363525390625,-0.70928955078125,-0.027862548828125
1700006753761701600,2.77270166015625,-0.0412139892578125,-0.7236328125,-0.0455169677734375
1700006753771646500,2.782646484375,-0.0284881591796875,-0.7494964599609375,-0.053070068359375
1700006753781591600,2.792591552734375,0.01007080078125,-0.773773193359375,-0.0376739501953125
1700006753791536600,2.80253662109375,0.045989990234375,-0.7920989990234375,-0.0121612548828125
1700006753801481500,2.8124814453125,0.0432281494140625,-0.808807373046875,-0.004852294921875
1700006753811426600,2.822426513671875,0.0120391845703125,-0.824188232421875,-0.0103607177734375
1700006753821372400,2.832372314453125,-0.012054443359375,-0.83892822265625,0.002655029296875
1700006753831317800,2.84231787109375,0.001007080078125,-0.8611907958984375,0.0253448486328125
1700006753841262600,2.8522626953125,0.0261993408203125,-0.900299072265625,0.0474090576171875
1700006753851207400,2.86220751953125,0.0370330810546875,-0.968475341796875,0.067718505859375
1700006753861152800,2.87215283203125,0.070556640625,-1.06427001953125,0.0840301513671875
1700006753871098600,2.8820986328125,0.063934326171875,-1.1672821044921875,0.1088409423828125
1700006753881043700,2.892043701171875,0.063720703125,-1.3045196533203125,0.1303253173828125
1700006753890988500,2.901988525390625,0.11181640625,-1.4488677978515625,0.1590728759765625
1700006753900933600,2.91193359375,0.151763916015625,-1.6046142578125,0.1772003173828125
1700006753910878700,2.921878662109375,0.1251678466796875,-1.753936767578125,0.1580963134765625
1700006753920823600,2.931823486328125,0.0898590087890625,-1.8277587890625,0.1431732177734375
1700006753930769700,2.941769775390625,0.0900115966796875,-1.7939453125,0.131591796875
1700006753940714500,2.951714599609375,0.124114990234375,-1.7190399169921875,0.110870361328125
1700006753950659600,2.96165966796875,0.1536712646484375,-1.6880645751953125,0.0103759765625
1700006753960604700,2.971604736328125,0.0994415283203125,-1.731353759765625,-0.1460418701171875
1700006753970549800,2.9815498046875,0.0107421875,-1.7558746337890625,-0.1555328369140625
1700006753980494800,2.991494873046875,-0.0122222900390625,-1.645904541015625,-0.026519775390625
1700006753990441000,3.00144091796875,-0.0308837890625,-1.495025634765625,0.0914764404296875
1700006754000385800,3.0113857421875,-0.090301513671875,-1.39923095703125,0.1006317138671875
1700006754010330600,3.02133056640625,-0.1541290283203125,-1.321685791015625,0.0392913818359375
1700006754020275700,3.031275634765625,-0.2046356201171875,-1.2352294921875,-0.0095672607421875
1700006754030220800,3.041220703125,-0.2640838623046875,-1.1326141357421875,-0.022308349609375
1700006754040167000,3.0511669921875,-0.2611083984375,-1.072845458984375,-0.0792083740234375
1700006754050111700,3.06111181640625,-0.2403411865234375,-1.023651123046875,-0.1473846435546875
1700006754060056600,3.071056640625,-0.2396240234375,-0.9383544921875,-0.1686553955078125
1700006754070002000,3.081001953125,-0.2357330322265625,-0.86065673828125,-0.170989990234375
1700006754079946800,3.09094677734375,-0.2281951904296875,-0.813507080078125,-0.1695709228515625
1700006754089891600,3.1008916015625,-0.207061767578125,-0.7809295654296875,-0.1693267822265625
1700006754099837700,3.110837646484375,-0.1703033447265625,-0.7617950439453125,-0.1627960205078125
1700006754109782800,3.12078271484375,-0.1195220947265625,-0.7610931396484375,-0.1600189208984375
1700006754119727900,3.130727783203125,-0.0619049072265625,-0.774261474609375,-0.1639862060546875
1700006754129672700,3.140672607421875,-0.027801513671875,-0.7957763671875,-0.1589813232421875
1700006754139617800,3.15061767578125,-0.0186920166015625,-0.8145294189453125,-0.1378021240234375
1700006754149563000,3.16056298828125,0.0006561279296875,-0.8365325927734375,-0.1236114501953125
1700006754159508700,3.1705087890625,0.0113525390625,-0.8519439697265625,-0.118438720703125
1700006754169453800,3.180453857421875,0.0220947265625,-0.86065673828125,-0.11309814453125
1700006754179398700,3.190398681640625,0.03924560546875,-0.8676605224609375,-0.107940673828125
1700006754189343700,3.20034375,0.05682373046875,-0.8663787841796875,-0.1036529541015625
1700006754199288800,3.210288818359375,0.0905609130859375,-0.8722991943359375,-0.0911102294921875
1700006754209234700,3.220234619140625,0.135345458984375,-0.8760986328125,-0.084259033203125
1700006754219179800,3.2301796875,0.1523895263671875,-0.8683013916015625,-0.0846710205078125
1700006754229124900,3.240124755859375,0.1555023193359375,-0.839630126953125,-0.07611083984375
1700006754239069700,3.250069580078125,0.1477813720703125,-0.807159423828125,-0.0629119873046875
1700006754249014800,3.260014892578125,0.1280670166015625,-0.7768402099609375,-0.0591278076171875
1700006754258960000,3.2699599609375,0.1005096435546875,-0.7462158203125,-0.06524658203125
1700006754268906000,3.279906005859375,0.0719451904296875,-0.708526611328125,-0.0751495361328125
1700006754278850800,3.289850830078125,0.0496368408203125,-0.6808624267578125,-0.0764007568359375
1700006754288795600,3.299795654296875,0.0440673828125,-0.6627655029296875,-0.0738372802734375
1700006754298740700,3.30974072265625,0.05718994140625,-0.6446380615234375,-0.0660247802734375
1700006754308685800,3.319685791015625,0.0723724365234375,-0.6251983642578125,-0.053619384765625
1700006754318630700,3.329630615234375,0.0750274658203125,-0.606597900390625,-0.045745849609375
1700006754328576800,3.33957666015625,0.063751220703125,-0.58746337890625,-0.04913330078125
1700006754338521600,3.349521484375,0.044647216796875,-0.5728607177734375,-0.0547027587890625
1700006754348467000,3.359467041015625,0.043670654296875,-0.5658416748046875,-0.0541534423828125
1700006754358411800,3.369411865234375,0.0526123046875,-0.5730743408203125,-0.0519866943359375
1700006754368356600,3.379356689453125,0.059906005859375,-0.59271240234375,-0.0446319580078125
1700006754378302700,3.389302734375,0.0605926513671875,-0.628204345703125,-0.03582763671875
1700006754388247800,3.399247802734375,0.064453125,-0.6737213134765625,-0.025848388671875
1700006754398193000,3.40919287109375,0.064300537109375,-0.7271881103515625,-0.01519775390625
1700006754408137700,3.4191376953125,0.0489349365234375,-0.79144287109375,-0.02081298828125
1700006754418082800,3.429082763671875,0.048309326171875,-0.8592681884765625,-0.03485107421875
1700006754428028000,3.43902783203125,0.0387115478515625,-0.9259185791015625,-0.0502777099609375
1700006754437973800,3.448973876953125,0.015716552734375,-1.0018310546875,-0.0600433349609375
1700006754447918600,3.458918701171875,0.02520751953125,-1.05999755859375,-0.066162109375
1700006754457863700,3.46886376953125,0.040863037109375,-1.1075439453125,-0.077362060546875
1700006754467808800,3.478808837890625,0.0364532470703125,-1.1517486572265625,-0.08795166015625
1700006754477753900,3.48875390625,0.0567474365234375,-1.1964569091796875,-0.1166839599609375
1700006754487699700,3.49869970703125,0.08758544921875,-1.237548828125,-0.1544647216796875
1700006754497644500,3.50864453125,0.0839996337890625,-1.2638702392578125,-0.1891632080078125
1700006754507590000,3.51858984375,0.0442352294921875,-1.2859954833984375,-0.2247161865234375
1700006754517534700,3.52853466796875,0.0049285888671875,-1.3160247802734375,-0.259246826171875
1700006754527479600,3.5384794921875,0.0077362060546875,-1.3443450927734375,-0.284942626953125
1700006754537425000,3.5484248046875,0.014404296875,-1.3692779541015625,-0.2981109619140625
1700006754547370800,3.558370849609375,0.019256591796875,-1.3730621337890625,-0.282440185546875
1700006754557315800,3.56831591796875,0.0426788330078125,-1.3707122802734375,-0.2391357421875
1700006754567260700,3.5782607421875,0.0767822265625,-1.361663818359375,-0.1907806396484375
1700006754577205800,3.588205810546875,0.0878448486328125,-1.3696441650390625,-0.1573028564453125
1700006754587150800,3.59815087890625,0.0926361083984375,-1.388397216796875,-0.120513916015625
1700006754597095700,3.608095703125,0.0849456787109375,-1.3975982666015625,-0.08111572265625
1700006754607041800,3.618041748046875,0.0445098876953125,-1.3797760009765625,-0.048065185546875
1700006754616986600,3.627986572265625,-0.011260986328125,-1.3513031005859375,-0.003814697265625
1700006754626931700,3.637931640625,-0.0420989990234375,-1.3258209228515625,0.044158935546875
1700006754636876800,3.647876708984375,-0.050933837890625,-1.2950286865234375,0.0855865478515625
1700006754646821600,3.657821533203125,-0.085418701171875,-1.258331298828125,0.1096343994140625
1700006754656766700,3.6677666015625,-0.1057891845703125,-1.2378082275390625,0.111236572265625
1700006754666712800,3.677712890625,-0.10107421875,-1.219268798828125,0.123565673828125
1700006754676657700,3.68765771484375,-0.102752685546875,-1.192291259765625,0.141082763671875
1700006754686602800,3.697602783203125,-0.1259613037109375,-1.149078369140625,0.153228759765625
1700006754696547800,3.7075478515625,-0.1632080078125,-1.0909423828125,0.1645660400390625
1700006754706492700,3.71749267578125,-0.2161102294921875,-1.0278167724609375,0.1722259521484375
1700006754716438800,3.727438720703125,-0.2562408447265625,-0.96685791015625,0.1955413818359375
1700006754726383600,3.737383544921875,-0.257781982421875,-0.911651611328125,0.2424774169921875
1700006754736329000,3.747328857421875,-0.2347564697265625,-0.871490478515625,0.312347412109375
1700006754746273800,3.757273681640625,-0.2064666748046875,-0.8551788330078125,0.393585205078125
1700006754756218600,3.767218505859375,-0.1702880859375,-0.8673553466796875,0.4666595458984375
1700006754766163700,3.777163818359375,-0.1457061767578125,-0.9196929931640625,0.4945526123046875
1700006754776109600,3.787109619140625,-0.1179656982421875,-0.977203369140625,0.46807861328125
1700006754786055000,3.797054931640625,-0.1016693115234375,-1.0341033935546875,0.392852783203125
1700006754795999700,3.806999755859375,-0.10699462890625,-1.0791015625,0.2740478515625
1700006754805944600,3.816944580078125,-0.1064453125,-1.0903167724609375,0.1727294921875
1700006754815890000,3.826889892578125,-0.0895843505859375,-1.071533203125,0.1129302978515625
1700006754825834800,3.836834716796875,-0.0565032958984375,-1.0447540283203125,0.0819244384765625
1700006754835780900,3.84678076171875,-0.00933837890625,-1.0148468017578125,0.0657196044921875
1700006754845725700,3.8567255859375,0.028411865234375,-0.9832916259765625,0.0407257080078125
1700006754855670800,3.8666708984375,0.04998779296875,-0.9504852294921875,0.01416015625
1700006754865616000,3.876615966796875,0.0534515380859375,-0.9177703857421875,-0.00518798828125
1700006754875560700,3.886560791015625,0.0410614013671875,-0.878265380859375,-0.0139923095703125
1700006754885506800,3.8965068359375,0.020355224609375,-0.83074951171875,-0.006195068359375
1700006754895452000,3.906451904296875,0.009674072265625,-0.786865234375,0.0044403076171875
1700006754905395700,3.916395751953125,0.004241943359375,-0.74725341796875,0.020294189453125
1700006754915341800,3.926341796875,0.0010223388671875,-0.7050933837890625,0.0447845458984375
1700006754925286700,3.93628662109375,0.007720947265625,-0.665557861328125,0.0654144287109375
1700006754935231700,3.946231689453125,0.0151824951171875,-0.6211700439453125,0.0914764404296875
1700006754945176800,3.9561767578125,0.021026611328125,-0.5825042724609375,0.10650634765625
1700006754955121700,3.96612158203125,0.02825927734375,-0.550628662109375,0.0996246337890625
1700006754965066800,3.976066650390625,0.0290374755859375,-0.542724609375,0.0698394775390625
1700006754975013400,3.986013427734375,0.01397705078125,-0.5653076171875,0.0280609130859375
1700006754984958500,3.99595849609375,-0.0019378662109375,-0.595245361328125,-0.007415771484375
1700006754994903600,4.005903564453125,-0.0112152099609375,-0.59796142578125,0.006988525390625
1700006755004848400,4.015848388671875,-0.0319976806640625,-0.59283447265625,0.0382232666015625
1700006755014793500,4.02579345703125,-0.0484771728515625,-0.5837249755859375,0.0729827880859375
1700006755024739600,4.035739501953125,-0.0406036376953125,-0.588775634765625,0.0972900390625
1700006755034684400,4.045684326171875,-0.0453643798828125,-0.61212158203125,0.112548828125
1700006755044629500,4.05562939453125,-0.0675506591796875,-0.6451263427734375,0.1132049560546875
1700006755054574600,4.06557470703125,-0.0688934326171875,-0.6889801025390625,0.1036529541015625
1700006755064519400,4.07551953125,-0.042633056640625,-0.74822998046875,0.1063995361328125
1700006755074464500,4.085464599609375,-0.00799560546875,-0.81988525390625,0.118255615234375
1700006755084410400,4.095410400390625,0.0160980224609375,-0.9004669189453125,0.1251373291015625
1700006755094355500,4.10535546875,0.0067596435546875,-1.0009765625,0.1223907470703125
1700006755104300500,4.115300537109375,-0.0102386474609375,-1.1183929443359375,0.1083984375
1700006755114245400,4.125245361328125,-0.0184326171875,-1.2386627197265625,0.094085693359375
1700006755124190500,4.1351904296875,-0.04254150390625,-1.3537139892578125,0.091278076171875
1700006755134135600,4.145135498046875,-0.0653839111328125,-1.445556640625,0.0897674560546875
1700006755144081700,4.15508154296875,-0.0721588134765625,-1.530792236328125,0.08233642578125
1700006755154026500,4.165026611328125,-0.0453948974609375,-1.594146728515625,0.0833587646484375
1700006755163971300,4.174971435546875,0.0120391845703125,-1.630126953125,0.0710601806640625
1700006755173916700,4.184916748046875,0.0653533935546875,-1.628875732421875,0.0443267822265625
1700006755183861500,4.194861572265625,0.1207427978515625,-1.611907958984375,0.0070648193359375
1700006755193806300,4.204806396484375,0.1402740478515625,-1.5826873779296875,-0.0137481689453125
1700006755203752400,4.21475244140625,0.0802154541015625,-1.5256195068359375,0.005157470703125
1700006755213697500,4.224697509765625,-0.0412445068359375,-1.468597412109375,0.055389404296875
1700006755223642600,4.234642578125,-0.1540374755859375,-1.427978515625,0.120849609375
1700006755233587500,4.24458740234375,-0.1943206787109375,-1.3881683349609375,0.173553466796875
1700006755243532500,4.254532470703125,-0.1483154296875,-1.368438720703125,0.16339111328125
1700006755253478400,4.264478515625,-0.0767822265625,-1.35028076171875,0.0819244384765625
1700006755263423500,4.274423583984375,-0.072540283203125,-1.2982177734375,-0.0089263916015625
1700006755273368300,4.284368408203125,-0.0938873291015625,-1.23968505859375,-0.092041015625
1700006755283313400,4.2943134765625,-0.147552490234375,-1.1732940673828125,-0.138824462890625
1700006755293258500,4.304258544921875,-0.2205047607421875,-1.113433837890625,-0.172454833984375
1700006755303203600,4.31420361328125,-0.2610321044921875,-1.0612335205078125,-0.192901611328125
1700006755313149400,4.3241494140625,-0.2636566162109375,-0.9998626708984375,-0.1786956787109375
1700006755323094300,4.33409423828125,-0.2471771240234375,-0.945587158203125,-0.1666412353515625
1700006755333039600,4.34403955078125,-0.218017578125,-0.90289306640625,-0.1640777587890625
1700006755342984400,4.353984375,-0.191070556640625,-0.8722076416015625,-0.1631317138671875
1700006755352930600,4.3639306640625,-0.1644287109375,-0.859405517578125,-0.16748046875
1700006755362875400,4.37387548828125,-0.1345672607421875,-0.8593902587890625,-0.17620849609375
1700006755372820500,4.383820556640625,-0.105560302734375,-0.873504638671875,-0.18304443359375
1700006755382765600,4.393765625,-0.0967864990234375,-0.8917236328125,-0.1842498779296875
1700006755392710400,4.40371044921875,-0.083831787109375,-0.908172607421875,-0.1761322021484375
1700006755402655500,4.413655517578125,-0.0684967041015625,-0.9150848388671875,-0.1569061279296875
1700006755412601300,4.423601318359375,-0.060455322265625,-0.9141693115234375,-0.1444549560546875
1700006755422546400,4.43354638671875,-0.051910400390625,-0.9141387939453125,-0.14129638671875
1700006755432491500,4.443491455078125,-0.040008544921875,-0.9194488525390625,-0.14239501953125
1700006755442436400,4.453436279296875,-0.008270263671875,-0.921478271484375,-0.1439208984375
1700006755452381400,4.46338134765625,0.028564453125,-0.9108123779296875,-0.1402740478515625
1700006755462327600,4.47332763671875,0.0607147216796875,-0.894744873046875,-0.13348388671875
1700006755472272400,4.4832724609375,0.0927886962890625,-0.87408447265625,-0.1300506591796875
1700006755482217500,4.493217529296875,0.1060791015625,-0.842559814453125,-0.1267547607421875
1700006755492162600,4.50316259765625,0.11334228515625,-0.8212738037109375,-0.1219940185546875
1700006755502107400,4.513107421875,0.111785888671875,-0.8137054443359375,-0.120941162109375
1700006755512052500,4.523052490234375,0.063201904296875,-0.74432373046875,-0.112213134765625
1700006755521998300,4.532998291015625,0.054962158203125,-0.715057373046875,-0.0836029052734375
1700006755531943700,4.542943603515625,0.0708770751953125,-0.6861724853515625,-0.0819091796875
1700006755541888500,4.552888427734375,0.0571441650390625,-0.65899658203125,-0.078582763671875
1700006755551833300,4.562833251953125,0.048248291015625,-0.6281280517578125,-0.0677032470703125
1700006755561778400,4.5727783203125,0.04656982421875,-0.59796142578125,-0.051544189453125
1700006755571723500,4.5827236328125,0.0447998046875,-0.5750274658203125,-0.042694091796875
1700006755581669600,4.592669677734375,0.0562744140625,-0.56085205078125,-0.0381622314453125
1700006755591614500,4.602614501953125,0.0808563232421875,-0.542938232421875,-0.035736083984375
1700006755601559300,4.612559326171875,0.08160400390625,-0.5227203369140625,-0.0230865478515625
1700006755611504600,4.622504638671875,0.078277587890625,-0.526885986328125,0.0006256103515625
1700006755621449500,4.632449462890625,0.0591583251953125,-0.5479888916015625,0.008087158203125
1700006755631394300,4.642394287109375,0.028839111328125,-0.59271240234375,0.0121612548828125
1700006755641340400,4.65234033203125,0.0003814697265625,-0.64935302734375,0.0113983154296875
1700006755651285500,4.662285400390625,-0.018402099609375,-0.718902587890625,-0.0047149658203125
1700006755661230600,4.672230712890625,-0.0198516845703125,-0.80780029296875,-0.0256500244140625
1700006755671175400,4.682175537109375,-0.0128021240234375,-0.910797119140625,-0.0550079345703125
1700006755681120500,4.69212060546875,0.002197265625,-1.0230255126953125,-0.0883026123046875
1700006755691066600,4.702066650390625,-0.0030059814453125,-1.1370697021484375,-0.114349365234375
1700006755701011500,4.712011474609375,-0.0305023193359375,-1.243499755859375,-0.1323394775390625
1700006755710956500,4.72195654296875,-0.0511474609375,-1.3287506103515625,-0.1452789306640625
1700006755720901400,4.7319013671875,-0.071746826171875,-1.3876190185546875,-0.1594390869140625
1700006755730846500,4.741846435546875,-0.0879669189453125,-1.4217529296875,-0.1731719970703125
1700006755740791600,4.75179150390625,-0.084014892578125,-1.441680908203125,-0.189300537109375
1700006755750737400,4.7617373046875,-0.0580596923828125,-1.4516143798828125,-0.2055511474609375
1700006755760682500,4.7716826171875,-0.033721923828125,-1.4378509521484375,-0.2142791748046875
1700006755770627600,4.781627685546875,-0.011688232421875,-1.4014434814453125,-0.21307373046875
1700006755780572400,4.791572509765625,0.0025177001953125,-1.3488311767578125,-0.1979522705078125
1700006755790517500,4.801517578125,-0.015960693359375,-1.29083251953125,-0.181610107421875
1700006755800462600,4.811462646484375,-0.059295654296875,-1.2673797607421875,-0.152618408203125
1700006755810408700,4.82140869140625,-0.09765625,-1.2908172607421875,-0.113189697265625
1700006755820353500,4.831353515625,-0.1284942626953125,-1.3090362548828125,-0.056549072265625
1700006755830298400,4.84129833984375,-0.1105804443359375,-1.3399810791015625,-0.003448486328125
1700006755840243500,4.851243408203125,-0.0566558837890625,-1.37689208984375,0.033447265625
1700006755850188500,4.8611884765625,-0.03961181640625,-1.3915252685546875,0.059967041015625
1700006755860134400,4.871134521484375,-0.052520751953125,-1.3897552490234375,0.0753173828125
1700006755870079500,4.88107958984375,-0.0862884521484375,-1.3681640625,0.095611572265625
1700006755880024300,4.8910244140625,-0.1319580078125,-1.32275390625,0.1144866943359375
1700006755889969700,4.9009697265625,-0.1877288818359375,-1.263275146484375,0.1220550537109375
1700006755899914500,4.91091455078125,-0.2185516357421875,-1.189697265625,0.1129913330078125
1700006755909859300,4.920859375,-0.2354278564453125,-1.1131439208984375,0.123321533203125
1700006755919805400,4.930805419921875,-0.2610015869140625,-1.04119873046875,0.15142822265625
1700006755929750500,4.94075048828125,-0.2719573974609375,-0.9818267822265625,0.192779541015625
1700006755939695400,4.9506953125,-0.2554931640625,-0.940887451171875,0.2391204833984375
1700006755949640400,4.960640380859375,-0.2324981689453125,-0.922332763671875,0.2713470458984375
1700006755959585500,4.97058544921875,-0.216064453125,-0.920074462890625,0.2729644775390625
1700006755969531000,4.98053076171875,-0.21246337890625,-0.928375244140625,0.2481231689453125
1700006755979476700,4.990476806640625,-0.210205078125,-0.94256591796875,0.22283935546875
1700006755989421600,5.000421630859375,-0.1837921142578125,-0.9523468017578125,0.20574951171875
1700006755999366700,5.01036669921875,-0.152984619140625,-0.9539947509765625,0.181365966796875
1700006756009311700,5.020311767578125,-0.131317138671875,-0.947479248046875,0.1554107666015625
1700006756019256800,5.0302568359375,-0.1131134033203125,-0.9373321533203125,0.1288909912109375
1700006756029201700,5.04020166015625,-0.0844573974609375,-0.92169189453125,0.1094512939453125
1700006756039147500,5.0501474609375,-0.059844970703125,-0.902252197265625,0.0968780517578125
1700006756049092900,5.0600927734375,-0.033660888671875,-0.8779144287109375,0.0973663330078125
1700006756059037700,5.07003759765625,-0.0078125,-0.8478546142578125,0.0981903076171875
1700006756068982800,5.079982666015625,0.009796142578125,-0.8267974853515625,0.09027099609375
1700006756078928000,5.089927978515625,0.0000457763671875,-0.806427001953125,0.0835418701171875
1700006756088872700,5.099872802734375,-0.0062408447265625,-0.787506103515625,0.09063720703125
1700006756098818800,5.10981884765625,-0.0129852294921875,-0.761993408203125,0.1055908203125
1700006756108763600,5.119763671875,-0.0344390869140625,-0.7300262451171875,0.1174774169921875
1700006756118708700,5.129708740234375,-0.0468292236328125,-0.7005157470703125,0.1373291015625
1700006756128653800,5.13965380859375,-0.0483856201171875,-0.6819915771484375,0.144561767578125
1700006756138598700,5.1495986328125,-0.042022705078125,-0.6706695556640625,0.1476898193359375
1700006756148544800,5.159544677734375,-0.033172607421875,-0.669281005859375,0.1454620361328125
1700006756158489600,5.169489501953125,-0.0315093994140625,-0.678741455078125,0.1230621337890625
1700006756168434700,5.1794345703125,-0.041015625,-0.684906005859375,0.1048126220703125
1700006756178379800,5.1893798828125,-0.0426788330078125,-0.687530517578125,0.0887908935546875
1700006756188324600,5.19932470703125,-0.030914306640625,-0.6888885498046875,0.070404052734375
1700006756198269700,5.209269775390625,-0.0305633544921875,-0.6691131591796875,0.0748291015625
1700006756208215800,5.2192158203125,-0.01983642578125,-0.655609130859375,0.0756988525390625
1700006756218160600,5.22916064453125,-0.0164337158203125,-0.651763916015625,0.07281494140625
1700006756228105700,5.239105712890625,-0.0140228271484375,-0.6673736572265625,0.06402587890625
1700006756238050800,5.24905078125,-0.001678466796875,-0.7019500732421875,0.049224853515625
1700006756247995600,5.25899560546875,-0.00946044921875,-0.725372314453125,0.0534820556640625
1700006756257940700,5.268940673828125,-0.0005950927734375,-0.746185302734375,0.064056396484375
1700006756267886600,5.278886474609375,0.0130767822265625,-0.7769622802734375,0.0715179443359375
1700006756277831700,5.288831787109375,0.0274505615234375,-0.828277587890625,0.0736083984375
1700006756287776800,5.29877685546875,0.036102294921875,-0.8899688720703125,0.07794189453125
1700006756297721600,5.3087216796875,0.050262451171875,-0.957489013671875,0.08807373046875
1700006756307666700,5.318666748046875,0.057586669921875,-1.0301513671875,0.096771240234375
1700006756317612500,5.328612548828125,0.040283203125,-1.1057281494140625,0.1043548583984375
1700006756327558000,5.338557861328125,0.0255279541015625,-1.180877685546875,0.109954833984375
1700006756337502700,5.348502685546875,0.006195068359375,-1.2526092529296875,0.1104888916015625
1700006756347447600,5.358447509765625,-0.005279541015625,-1.327178955078125,0.1009521484375
1700006756357393000,5.368392822265625,-0.011749267578125,-1.3984527587890625,0.0963897705078125
1700006756367337700,5.378337646484375,-0.0205230712890625,-1.46588134765625,0.1026153564453125
1700006756377283800,5.388283935546875,-0.0051116943359375,-1.5270233154296875,0.11163330078125
1700006756387228700,5.398228759765625,0.0402374267578125,-1.5791473388671875,0.1073760986328125
1700006756397173800,5.408173828125,0.0924072265625,-1.607330322265625,0.0886383056640625
1700006756407118800,5.418118896484375,0.0988311767578125,-1.596160888671875,0.0605926513671875
1700006756417063700,5.428063720703125,0.0845184326171875,-1.5655517578125,0.0243682861328125
1700006756427008500,5.438008544921875,0.0685577392578125,-1.5361785888671875,-0.0024871826171875
1700006756436954600,5.44795458984375,0.029510498046875,-1.497894287109375,0.0025787353515625
1700006756446899700,5.457899658203125,-0.0181427001953125,-1.4407958984375,0.017059326171875
1700006756456844800,5.4678447265625,-0.0673370361328125,-1.3835601806640625,0.021484375
1700006756466789600,5.47778955078125,-0.1073150634765625,-1.329681396484375,0.0208282470703125
1700006756476734700,5.487734619140625,-0.1231689453125,-1.2595977783203125,0.034088134765625
1700006756486679800,5.4976796875,-0.1141357421875,-1.2305145263671875,-0.00054931640625
1700006756496625700,5.507625732421875,-0.1168670654296875,-1.245391845703125,-0.07421875
1700006756506570800,5.51757080078125,-0.15673828125,-1.230926513671875,-0.1121826171875
1700006756516515800,5.527515869140625,-0.163055419921875,-1.2427520751953125,-0.1695404052734375
1700006756526460700,5.537460693359375,-0.179931640625,-1.205657958984375,-0.1746978759765625
1700006756536405800,5.54740576171875,-0.191864013671875,-1.1223297119140625,-0.158843994140625
1700006756546350600,5.5573505859375,-0.173004150390625,-1.008819580078125,-0.1380615234375
1700006756556296700,5.567296630859375,-0.14422607421875,-0.9200897216796875,-0.1458892822265625
1700006756566241800,5.57724169921875,-0.09405517578125,-0.88983154296875,-0.1822967529296875
1700006756576186600,5.5871865234375,-0.055328369140625,-0.8846588134765625,-0.2028656005859375
1700006756586131700,5.597131591796875,-0.043975830078125,-0.8680572509765625,-0.181488037109375
1700006756596076800,5.607076904296875,-0.0305938720703125,-0.8422088623046875,-0.13922119140625
1700006756606023000,5.61702294921875,0.029876708984375,-0.838958740234375,-0.118194580078125
1700006756615967700,5.6269677734375,0.0587158203125,-0.8511199951171875,-0.11541748046875
1700006756625912600,5.63691259765625,0.0722503662109375,-0.866119384765625,-0.1089935302734375
1700006756635858000,5.64685791015625,0.0995330810546875,-0.8702392578125,-0.093658447265625
1700006756645802800,5.656802734375,0.1068572998046875,-0.8661651611328125,-0.074859619140625
1700006756655747600,5.66674755859375,0.1162109375,-0.855682373046875,-0.0592041015625
1700006756665693700,5.676693603515625,0.1331024169921875,-0.8471527099609375,-0.0468292236328125
1700006756675638800,5.686638671875,0.1485595703125,-0.84783935546875,-0.0426025390625
1700006756685584000,5.696583984375,0.1575164794921875,-0.8600311279296875,-0.05029296875
1700006756695528700,5.70652880859375,0.1676025390625,-0.87109375,-0.0539703369140625
1700006756705473500,5.7164736328125,0.1804046630859375,-0.8728179931640625,-0.0464324951171875
1700006756715419000,5.7264189453125,0.1989593505859375,-0.865447998046875,-0.032623291015625
1700006756725364700,5.73636474609375,0.208404541015625,-0.853485107421875,-0.0217742919921875
1700006756735309800,5.746309814453125,0.2061309814453125,-0.8404083251953125,-0.0288848876953125
1700006756745254700,5.756254638671875,0.2032318115234375,-0.8178253173828125,-0.0267486572265625
1700006756755199700,5.76619970703125,0.226776123046875,-0.790496826171875,-0.0197296142578125
1700006756765144800,5.776144775390625,0.2553558349609375,-0.760009765625,-0.014678955078125
1700006756775089700,5.786089599609375,0.23974609375,-0.7020721435546875,-0.012115478515625
1700006756785035500,5.796035400390625,0.2184295654296875,-0.6824188232421875,0.0214080810546875
1700006756794980900,5.80598095703125,0.2041168212890625,-0.6515350341796875,0.0388336181640625
1700006756804925700,5.81592578125,0.179840087890625,-0.5997314453125,0.060394287109375
1700006756814870800,5.825870849609375,0.1728973388671875,-0.59100341796875,0.0997161865234375
1700006756824815900,5.83581591796875,0.158843994140625,-0.5847320556640625,0.10723876953125
1700006756834760700,5.8457607421875,0.13812255859375,-0.574462890625,0.1056671142578125
1700006756844706800,5.855706787109375,0.1363525390625,-0.570648193359375,0.1093902587890625
1700006756854651600,5.865651611328125,0.131256103515625,-0.5831451416015625,0.104888916015625
1700006756864596500,5.875596435546875,0.1250152587890625,-0.606353759765625,0.087615966796875
1700006756874541800,5.885541748046875,0.117462158203125,-0.6324310302734375,0.0590057373046875
1700006756884486700,5.895486572265625,0.101531982421875,-0.6760406494140625,0.0256805419921875
1700006756894432800,5.905432861328125,0.0949554443359375,-0.7346038818359375,-0.008880615234375
1700006756904377600,5.915377685546875,0.0893096923828125,-0.79296875,-0.0476226806640625
1700006756914322700,5.92532275390625,0.098419189453125,-0.8484649658203125,-0.074249267578125
1700006756924267800,5.935267822265625,0.1260833740234375,-0.89093017578125,-0.0859222412109375
1700006756934212600,5.945212646484375,0.1468353271484375,-0.938446044921875,-0.1039886474609375
1700006756944158000,5.955157958984375,0.16424560546875,-0.978668212890625,-0.1404266357421875
1700006756954103800,5.965103759765625,0.168182373046875,-1.0124359130859375,-0.1737823486328125
1700006756964048600,5.975048583984375,0.16033935546875,-1.0487213134765625,-0.1893157958984375
1700006756973992700,5.98499267578125,0.1443328857421875,-1.076934814453125,-0.17633056640625
1700006756983937800,5.994937744140625,0.12451171875,-1.110870361328125,-0.1378631591796875
1700006756993882600,6.004882568359375,0.12469482421875,-1.161376953125,-0.11077880859375
1700006757003827500,6.014827392578125,0.1654815673828125,-1.2190399169921875,-0.1146697998046875
1700006757013773600,6.024773681640625,0.2052459716796875,-1.2703094482421875,-0.1465911865234375
1700006757023718700,6.03471875,0.2249603271484375,-1.3121490478515625,-0.177398681640625
1700006757033663700,6.044663818359375,0.245880126953125,-1.3418121337890625,-0.200103759765625
1700006757043608600,6.054608642578125,0.23626708984375,-1.358612060546875,-0.2042388916015625
1700006757053553700,6.0645537109375,0.225311279296875,-1.354522705078125,-0.1824951171875
1700006757063498800,6.074498779296875,0.247894287109375,-1.342498779296875,-0.1464385986328125
1700006757073444600,6.084444580078125,0.276580810546875,-1.35968017578125,-0.129547119140625
1700006757083389700,6.0943896484375,0.2718658447265625,-1.4019927978515625,-0.1243896484375
1700006757093334800,6.104334716796875,0.2343902587890625,-1.4281768798828125,-0.0804290771484375
1700006757103279600,6.114279541015625,0.174896240234375,-1.4285736083984375,0.00054931640625
1700006757113224700,6.124224609375,0.122955322265625,-1.41986083984375,0.0557861328125
1700006757123170600,6.134170654296875,0.147125244140625,-1.42095947265625,0.0690765380859375
1700006757133115600,6.14411572265625,0.219879150390625,-1.39093017578125,0.0473785400390625
1700006757143060700,6.154060791015625,0.2243194580078125,-1.3287353515625,0.03778076171875
1700006757153005600,6.164005615234375,0.17578125,-1.2785797119140625,0.05419921875
1700006757162950700,6.17395068359375,0.15435791015625,-1.22869873046875,0.0673065185546875
1700006757172895700,6.183895751953125,0.13104248046875,-1.155364990234375,0.0926513671875
1700006757182841600,6.193841552734375,0.08837890625,-1.0692901611328125,0.1309051513671875
1700006757192786700,6.20378662109375,0.0487823486328125,-0.9931182861328125,0.162322998046875
1700006757202731500,6.2137314453125,0.0391998291015625,-0.9332733154296875,0.1840362548828125
1700006757212676600,6.223676513671875,0.034454345703125,-0.8928070068359375,0.199371337890625
1700006757222621700,6.23362158203125,0.0186309814453125,-0.879119873046875,0.2085418701171875
1700006757232566500,6.24356640625,0.02178955078125,-0.8769683837890625,0.2112274169921875
1700006757242512600,6.2535126953125,0.0362091064453125,-0.8776092529296875,0.213348388671875
1700006757252457700,6.263457763671875,0.0356597900390625,-0.89642333984375,0.2159271240234375
1700006757262402600,6.273402587890625,0.02508544921875,-0.9342193603515625,0.204071044921875
1700006757272347600,6.28334765625,0.054443359375,-0.966552734375,0.18133544921875
1700006757282292500,6.29329248046875,0.0850067138671875,-0.990997314453125,0.1550140380859375
1700006757292237800,6.30323779296875,0.073822021484375,-1.0122528076171875,0.1259613037109375
1700006757302183700,6.31318359375,0.0738067626953125,-1.0123443603515625,0.105224609375
1700006757312128500,6.32312841796875,0.0859832763671875,-0.991058349609375,0.0919647216796875
1700006757322073600,6.333073486328125,0.0973358154296875,-0.9661712646484375,0.0772552490234375
1700006757332018700,6.343018798828125,0.118927001953125,-0.942413330078125,0.0611419677734375
1700006757341963500,6.352963623046875,0.1280364990234375,-0.9135894775390625,0.0525054931640625
1700006757351908600,6.36290869140625,0.1484527587890625,-0.8863372802734375,0.0509796142578125
1700006757361854500,6.3728544921875,0.1689453125,-0.86126708984375,0.0562286376953125
1700006757371799800,6.3827998046875,0.1795196533203125,-0.8356475830078125,0.06170654296875
1700006757381744600,6.39274462890625,0.1908111572265625,-0.815155029296875,0.067230224609375
1700006757391689500,6.402689453125,0.197723388671875,-0.7942657470703125,0.0759735107421875
1700006757401634800,6.412634765625,0.1932525634765625,-0.7684783935546875,0.09344482421875
1700006757411579600,6.42257958984375,0.1808929443359375,-0.7445831298828125,0.108917236328125
1700006757421525800,6.43252587890625,0.1567840576171875,-0.7246246337890625,0.119964599609375
1700006757431470600,6.442470703125,0.133544921875,-0.704010009765625,0.1285247802734375
1700006757441415400,6.45241552734375,0.11572265625,-0.68597412109375,0.12420654296875
1700006757451360800,6.46236083984375,0.0929718017578125,-0.671417236328125,0.1061248779296875
1700006757461305600,6.4723056640625,0.0849609375,-0.6581878662109375,0.0910186767578125
1700006757471251700,6.482251708984375,0.092498779296875,-0.6436004638671875,0.0779266357421875
1700006757481196500,6.492196533203125,0.0964508056640625,-0.63629150390625,0.0636444091796875
1700006757491141600,6.5021416015625,0.0909423828125,-0.63446044921875,0.05450439453125
1700006757501086700,6.512086669921875,0.0755157470703125,-0.6369781494140625,0.05035400390625
1700006757511031600,6.522031494140625,0.07257080078125,-0.651641845703125,0.0435791015625
1700006757520976600,6.5319765625,0.0807342529296875,-0.674346923828125,0.034912109375
1700006757530922800,6.5419228515625,0.093902587890625,-0.7023468017578125,0.02935791015625
1700006757540867600,6.55186767578125,0.101104736328125,-0.7335205078125,0.0229034423828125
1700006757550812700,6.561812744140625,0.108795166015625,-0.767669677734375,0.018951416015625
1700006757560757800,6.5717578125,0.1156005859375,-0.8057098388671875,0.02191162109375
1700006757570702600,6.58170263671875,0.12225341796875,-0.8487701416015625,0.043365478515625
1700006757580647700,6.591647705078125,0.13348388671875,-0.8966064453125,0.0738067626953125
1700006757590593500,6.601593505859375,0.1414947509765625,-0.9538726806640625,0.0911712646484375
1700006757600538600,6.61153857421875,0.153045654296875,-1.0306549072265625,0.0840301513671875
1700006757610483700,6.621483642578125,0.1812744140625,-1.1074066162109375,0.0779266357421875
1700006757620428500,6.631428466796875,0.2050628662109375,-1.184051513671875,0.0771484375
1700006757630373600,6.64137353515625,0.2000579833984375,-1.2515411376953125,0.0603790283203125
1700006757640318700,6.651318603515625,0.197021484375,-1.299072265625,0.028717041015625
1700006757650264800,6.661264892578125,0.16131591796875,-1.332000732421875,0.0039215087890625
1700006757660209700,6.671209716796875,0.1396026611328125,-1.3517608642578125,-0.001800537109375
1700006757670154500,6.681154541015625,0.174285888671875,-1.34185791015625,0.009246826171875
1700006757680099800,6.691099853515625,0.1955718994140625,-1.3349456787109375,0.005615234375
1700006757690044700,6.701044677734375,0.1499786376953125,-1.3310394287109375,0.0090484619140625
1700006757699989500,6.710989501953125,0.1354522705078125,-1.3210601806640625,0.0226593017578125
1700006757709935600,6.720935546875,0.152679443359375,-1.2887420654296875,0.03118896484375
1700006757719880700,6.730880615234375,0.1522674560546875,-1.25872802734375,0.0328216552734375
1700006757729825800,6.74082568359375,0.1254425048828125,-1.2592010498046875,0.0189056396484375
1700006757739770600,6.7507705078125,0.09417724609375,-1.2809906005859375,0.0109405517578125
1700006757749715500,6.760715576171875,0.0949249267578125,-1.3048095703125,0.0194244384765625
1700006757759660800,6.770660888671875,0.1131744384765625,-1.31182861328125,0.0346832275390625
1700006757769606700,6.780606689453125,0.1050567626953125,-1.30352783203125,0.0310821533203125
1700006757779551700,6.7905517578125,0.0648651123046875,-1.2850799560546875,0.0131378173828125
1700006757789496600,6.80049658203125,0.03228759765625,-1.282318115234375,-0.0184326171875
1700006757799441700,6.810441650390625,0.01458740234375,-1.2698974609375,-0.0410614013671875
1700006757809386800,6.82038671875,-0.0025177001953125,-1.237213134765625,-0.0575408935546875
1700006757819332600,6.83033251953125,-0.0219268798828125,-1.19195556640625,-0.0698699951171875
1700006757829277700,6.840277587890625,-0.0450897216796875,-1.144012451171875,-0.086273193359375
1700006757839222800,6.850222900390625,-0.0604705810546875,-1.0930633544921875,-0.10064697265625
1700006757849167600,6.860167724609375,-0.06988525390625,-1.0369110107421875,-0.1125640869140625
1700006757859112700,6.87011279296875,-0.0750885009765625,-0.9898223876953125,-0.1271514892578125
1700006757869057500,6.8800576171875,-0.0640869140625,-0.9532928466796875,-0.13983154296875
1700006757879003600,6.890003662109375,-0.0457611083984375,-0.9290771484375,-0.158782958984375
1700006757888948700,6.89994873046875,-0.0330047607421875,-0.905609130859375,-0.162811279296875
1700006757898893600,6.9098935546875,-0.0344085693359375,-0.8839874267578125,-0.1584014892578125
1700006757908838700,6.919838623046875,-0.0536041259765625,-0.8795166015625,-0.1493682861328125
1700006757918783700,6.92978369140625,-0.050567626953125,-0.888031005859375,-0.134368896484375
1700006757928728600,6.939728515625,-0.0376434326171875,-0.9055938720703125,-0.1190643310546875
1700006757938674700,6.9496748046875,-0.02496337890625,-0.9229278564453125,-0.10675048828125
1700006757948619500,6.95961962890625,-0.00677490234375,-0.93377685546875,-0.095001220703125
1700006757958564900,6.96956494140625,0.007568359375,-0.943084716796875,-0.088287353515625
1700006757968509700,6.979509765625,0.017303466796875,-0.94573974609375,-0.0864715576171875
1700006757978455800,6.989455810546875,0.0243377685546875,-0.9416046142578125,-0.0962371826171875
1700006757988400600,6.999400634765625,0.0333404541015625,-0.939453125,-0.1166229248046875
1700006757998346800,7.0093466796875,0.0472564697265625,-0.9376983642578125,-0.1420745849609375
1700006758008291800,7.019291748046875,0.0700836181640625,-0.9321746826171875,-0.164154052734375
1700006758018236700,7.029236572265625,0.09918212890625,-0.9252471923828125,-0.1744232177734375
1700006758028181800,7.039181640625,0.1252593994140625,-0.915252685546875,-0.173919677734375
1700006758038126600,7.049126708984375,0.1462249755859375,-0.8988037109375,-0.1678924560546875
1700006758048071700,7.05907177734375,0.1576080322265625,-0.871612548828125,-0.1566162109375
1700006758058017800,7.069017822265625,0.157806396484375,-0.8407135009765625,-0.13958740234375
1700006758067962600,7.078962646484375,0.1527862548828125,-0.8068084716796875,-0.1185302734375
1700006758077907700,7.08890771484375,0.1425018310546875,-0.7801055908203125,-0.096649169921875
1700006758087852800,7.098852783203125,0.1223907470703125,-0.74713134765625,-0.075439453125
1700006758097797600,7.108797607421875,0.1065521240234375,-0.7285919189453125,-0.039398193359375
1700006758107742700,7.11874267578125,0.0764007568359375,-0.6837005615234375,-0.0208282470703125
1700006758117688600,7.1286884765625,0.05908203125,-0.6630401611328125,0.007659912109375
1700006758127634000,7.138634033203125,0.056182861328125,-0.647064208984375,0.0074310302734375
1700006758137578800,7.148578857421875,0.066986083984375,-0.6450958251953125,0.0019073486328125
1700006758147523600,7.158523681640625,0.0765380859375,-0.655120849609375,-0.0016937255859375
1700006758157468700,7.16846875,0.0777587890625,-0.6727447509765625,-0.005096435546875
1700006758167414800,7.178414794921875,0.066253662109375,-0.689544677734375,-0.018524169921875
1700006758177360000,7.18835986328125,0.056976318359375,-0.7237091064453125,-0.0263519287109375
1700006758187304700,7.1983046875,0.0238189697265625,-0.7650604248046875,-0.035064697265625
1700006758197249500,7.20824951171875,0.014434814453125,-0.80865478515625,-0.0249176025390625
1700006758207195000,7.21819482421875,0.0491180419921875,-0.8426055908203125,-0.013031005859375
1700006758217139700,7.2281396484375,0.076385498046875,-0.89068603515625,-0.03521728515625
1700006758227085800,7.2380859375,0.0576171875,-0.951690673828125,-0.07476806640625
1700006758237030700,7.24803076171875,0.050323486328125,-1.0103302001953125,-0.091278076171875
1700006758246975700,7.257975830078125,0.05401611328125,-1.0491180419921875,-0.094573974609375
1700006758256920800,7.2679208984375,0.0447998046875,-1.0792236328125,-0.0850067138671875
1700006758266865700,7.27786572265625,0.0305633544921875,-1.1020660400390625,-0.0712432861328125
1700006758276810800,7.287810791015625,0.027984619140625,-1.1236419677734375,-0.0690155029296875
1700006758286756900,7.2977568359375,0.0391845703125,-1.1505889892578125,-0.0781402587890625
1700006758296701700,7.30770166015625,0.0526580810546875,-1.178436279296875,-0.09600830078125
1700006758306646800,7.317646728515625,0.0627593994140625,-1.19073486328125,-0.105560302734375
1700006758316591600,7.327591552734375,0.0608367919921875,-1.188262939453125,-0.1051025390625
1700006758326536700,7.33753662109375,0.0599517822265625,-1.190155029296875,-0.1060638427734375
1700006758336481800,7.347481689453125,0.0669403076171875,-1.1935577392578125,-0.11004638671875
1700006758346427600,7.357427734375,0.0836944580078125,-1.1982269287109375,-0.1030120849609375
1700006758356372700,7.367372802734375,0.1014862060546875,-1.2016754150390625,-0.092620849609375
1700006758366317800,7.37731787109375,0.1212310791015625,-1.212188720703125,-0.09344482421875
1700006758376262700,7.3872626953125,0.1355743408203125,-1.2398681640625,-0.1058807373046875
1700006758386207700,7.397207763671875,0.139495849609375,-1.2832794189453125,-0.106903076171875
1700006758396152800,7.40715283203125,0.14111328125,-1.322967529296875,-0.0816802978515625
1700006758406099000,7.417098876953125,0.116455078125,-1.3603363037109375,-0.0498199462890625
1700006758416043800,7.427043701171875,0.0850830078125,-1.409881591796875,-0.0221710205078125
1700006758425988600,7.436988525390625,0.0766448974609375,-1.444854736328125,-0.00140380859375
1700006758435934000,7.446933837890625,0.085540771484375,-1.4442901611328125,0.0062255859375
1700006758445878800,7.456878662109375,0.029296875,-1.412017822265625,0.005645751953125
1700006758455823600,7.46682373046875,-0.0453338623046875,-1.35821533203125,0.01953125
1700006758465769700,7.476769775390625,-0.0751495361328125,-1.293304443359375,0.0478363037109375
1700006758475714600,7.486714599609375,-0.1107025146484375,-1.2277069091796875,0.0767059326171875
1700006758485660000,7.496659912109375,-0.1562347412109375,-1.170379638671875,0.1066436767578125
1700006758495604700,7.506604736328125,-0.17034912109375,-1.10614013671875,0.14300537109375
1700006758505549600,7.516549560546875,-0.149993896484375,-1.04913330078125,0.1668548583984375
1700006758515495000,7.526494873046875,-0.1353759765625,-1.011505126953125,0.182159423828125
1700006758525440800,7.536440673828125,-0.12188720703125,-0.9832916259765625,0.199188232421875
1700006758535385600,7.546385498046875,-0.122344970703125,-0.9633331298828125,0.214019775390625
1700006758545330700,7.55633056640625,-0.129913330078125,-0.9561309814453125,0.216796875
1700006758555275800,7.56627587890625,-0.1110382080078125,-0.960540771484375,0.201141357421875
1700006758565220900,7.576220947265625,-0.0572967529296875,-0.97686767578125,0.1720733642578125
1700006758575166700,7.586166748046875,-0.0220947265625,-0.998260498046875,0.148773193359375
1700006758585111600,7.596111572265625,-0.0101318359375,-1.0048065185546875,0.136688232421875
1700006758595057000,7.606056884765625,-0.0031890869140625,-0.9950103759765625,0.1381988525390625
1700006758605001700,7.616001708984375,0.0017547607421875,-0.9810791015625,0.1434173583984375
1700006758614946800,7.62594677734375,0.0108489990234375,-0.9679107666015625,0.14129638671875
1700006758624891600,7.6358916015625,0.02825927734375,-0.9551239013671875,0.1423187255859375
1700006758634837500,7.64583740234375,0.0406951904296875,-0.9386138916015625,0.1423187255859375
1700006758644782800,7.655782958984375,0.0586090087890625,-0.9165496826171875,0.134124755859375
1700006758654727700,7.665727783203125,0.078582763671875,-0.89276123046875,0.1229705810546875
1700006758664672500,7.675672607421875,0.089202880859375,-0.8728790283203125,0.1147308349609375
1700006758674617900,7.685617919921875,0.102813720703125,-0.8603973388671875,0.1074676513671875
1700006758684562700,7.695562744140625,0.12646484375,-0.848358154296875,0.097869873046875
1700006758694508800,7.7055087890625,0.135986328125,-0.83154296875,0.08721923828125
1700006758704453600,7.71545361328125,0.1458282470703125,-0.8127899169921875,0.085723876953125
1700006758714398700,7.725398681640625,0.1407470703125,-0.7877197265625,0.1016387939453125
1700006758724343800,7.73534375,0.1056976318359375,-0.7620391845703125,0.130523681640625
1700006758734288600,7.74528857421875,0.105865478515625,-0.7393951416015625,0.1551361083984375
1700006758744233700,7.755233642578125,0.1116790771484375,-0.722686767578125,0.161407470703125
1700006758754179800,7.765179931640625,0.085296630859375,-0.702606201171875,0.1583099365234375
1700006758764124700,7.775124755859375,0.0616455078125,-0.684539794921875,0.1491241455078125
1700006758774069800,7.78506982421875,0.05572509765625,-0.6693267822265625,0.1419677734375
1700006758784014600,7.7950146484375,0.037445068359375,-0.6504364013671875,0.136871337890625
1700006758793959700,7.804959716796875,0.0577239990234375,-0.6531982421875,0.1385498046875
1700006758803904800,7.81490478515625,0.1095123291015625,-0.664154052734375,0.1258392333984375
1700006758813850600,7.8248505859375,0.118408203125,-0.677734375,0.1027984619140625
1700006758823795700,7.834795654296875,0.089141845703125,-0.6875,0.080780029296875
1700006758833740800,7.84474072265625,0.078033447265625,-0.708251953125,0.06646728515625
1700006758843685600,7.854685546875,0.0900115966796875,-0.7313385009765625,0.062744140625
1700006758853630700,7.864630615234375,0.0913848876953125,-0.7579803466796875,0.0658111572265625
1700006758863575800,7.874575927734375,0.07958984375,-0.79473876953125,0.064239501953125
1700006758873522000,7.88452197265625,0.0736083984375,-0.8356170654296875,0.0761566162109375
1700006758883466800,7.894466796875,0.0752105712890625,-0.88067626953125,0.094482421875
1700006758893411600,7.90441162109375,0.09234619140625,-0.9225006103515625,0.1110687255859375
1700006758903356700,7.914356689453125,0.0858612060546875,-0.95684814453125,0.1245269775390625
1700006758913301800,7.9243017578125,0.0576934814453125,-0.977752685546875,0.1335601806640625
1700006758923246600,7.93424658203125,0.0398101806640625,-1.005279541015625,0.125640869140625
1700006758933191700,7.944191650390625,0.0544891357421875,-1.045989990234375,0.1045074462890625
1700006758943136800,7.95413671875,0.0853271484375,-1.079559326171875,0.0908966064453125
1700006758953083000,7.964082763671875,0.0915374755859375,-1.1163177490234375,0.0865020751953125
1700006758963027700,7.97402783203125,0.1038360595703125,-1.15911865234375,0.0950164794921875
1700006758972972500,7.98397265625,0.106414794921875,-1.20361328125,0.1087646484375
1700006758982917600,7.993917724609375,0.099761962890625,-1.2633514404296875,0.1207122802734375
1700006758992862700,8.00386279296875,0.1205291748046875,-1.324310302734375,0.1248626708984375
1700006759002807600,8.0138076171875,0.1280364990234375,-1.37615966796875,0.1145477294921875
1700006759012753400,8.02375341796875,0.1093292236328125,-1.4196929931640625,0.105133056640625
1700006759022698800,8.03369873046875,0.08233642578125,-1.4410400390625,0.0995941162109375
1700006759032643600,8.0436435546875,0.0998992919921875,-1.4379425048828125,0.0775909423828125
1700006759042588700,8.053588623046876,0.1341705322265625,-1.428497314453125,0.0369720458984375
1700006759052533500,8.063533447265625,0.108001708984375,-1.40899658203125,-0.000823974609375
1700006759062478600,8.073478515625,0.0614776611328125,-1.3872528076171875,-0.0189056396484375
1700006759072424700,8.0834248046875,0.0454254150390625,-1.3812408447265625,-0.0143890380859375
1700006759082369500,8.09336962890625,0.0598602294921875,-1.3730010986328125,-0.01202392578125
1700006759092314400,8.103314453125,0.0669403076171875,-1.3467254638671875,-0.014678955078125
1700006759102259700,8.113259765625,0.063690185546875,-1.2929534912109375,-0.0053558349609375
1700006759112204500,8.12320458984375,0.0559234619140625,-1.2244873046875,-0.006744384765625
1700006759122149600,8.133149658203125,0.0556488037109375,-1.16717529296875,-0.0376434326171875
1700006759132095500,8.143095458984375,0.0605010986328125,-1.1448516845703125,-0.0934295654296875
1700006759142040600,8.15304052734375,0.05780029296875,-1.1573486328125,-0.156951904296875
1700006759151985700,8.162985595703125,0.027801513671875,-1.1128692626953125,-0.15081787109375
1700006759161930500,8.172930419921874,0.0184478759765625,-1.0241241455078125,-0.110809326171875
1700006759171875800,8.182875732421875,0.04547119140625,-0.9499359130859375,-0.0989990234375
1700006759181820700,8.192820556640624,0.0555572509765625,-0.898895263671875,-0.1099700927734375
1700006759191766500,8.2027666015625,0.066436767578125,-0.871978759765625,-0.142120361328125
1700006759201711600,8.212711669921875,0.0722198486328125,-0.8659210205078125,-0.1720428466796875
1700006759211656400,8.222656494140624,0.0689239501953125,-0.8713531494140625,-0.1841888427734375
1700006759221601500,8.2326015625,0.058319091796875,-0.867095947265625,-0.1670379638671875
1700006759231546600,8.242546630859374,0.0686492919921875,-0.8747711181640625,-0.152923583984375
1700006759241491500,8.252491455078125,0.08306884765625,-0.881622314453125,-0.1385955810546875
1700006759251437600,8.2624375,0.0475006103515625,-0.8921661376953125,-0.1194915771484375
1700006759261382700,8.272382568359374,0.0558013916015625,-0.90185546875,-0.0918731689453125
1700006759271327500,8.282327392578125,0.1132659912109375,-0.8948822021484375,-0.070526123046875
1700006759281272600,8.2922724609375,0.1249542236328125,-0.896759033203125,-0.064117431640625
1700006759291217700,8.3022177734375,0.147491455078125,-0.90386962890625,-0.0719146728515625
1700006759301162500,8.31216259765625,0.1701507568359375,-0.910400390625,-0.08184814453125
1700006759311108600,8.322108642578126,0.1562652587890625,-0.915557861328125,-0.09063720703125
1700006759321053400,8.332053466796875,0.117431640625,-0.9214019775390625,-0.09783935546875
1700006759330998800,8.341998779296874,0.1035614013671875,-0.92828369140625,-0.0929107666015625
1700006759340944600,8.351944580078126,0.109649658203125,-0.92620849609375,-0.0821075439453125
1700006759350889700,8.3618896484375,0.1417236328125,-0.9081268310546875,-0.0750732421875
1700006759360834600,8.37183447265625,0.1717376708984375,-0.8864593505859375,-0.0698089599609375
1700006759370779400,8.381779296875,0.126007080078125,-0.8602752685546875,-0.059478759765625
1700006759380724700,8.391724853515624,0.102081298828125,-0.8305816650390625,-0.045654296875
1700006759390669600,8.401669677734375,0.1060791015625,-0.810150146484375,-0.0338592529296875
1700006759400615700,8.41161572265625,0.1173095703125,-0.796966552734375,-0.0306549072265625
1700006759410560500,8.421560546875,0.1246795654296875,-0.7796478271484375,-0.0355377197265625
1700006759420505600,8.431505615234375,0.11773681640625,-0.757537841796875,-0.0360565185546875
1700006759430450700,8.44145068359375,0.1099090576171875,-0.738189697265625,-0.0257415771484375
1700006759440395500,8.4513955078125,0.118438720703125,-0.7198944091796875,-0.015411376953125
1700006759450340600,8.461340576171875,0.1112213134765625,-0.706451416015625,-0.004913330078125
1700006759460286700,8.47128662109375,0.0922698974609375,-0.6970977783203125,0.0099334716796875
1700006759470231600,8.4812314453125,0.0848541259765625,-0.6991119384765625,0.021453857421875
1700006759480176600,8.4911767578125,0.0743255615234375,-0.7079925537109375,0.02227783203125
1700006759490121700,8.501121826171875,0.09368896484375,-0.720062255859375,0.0182647705078125
1700006759500066600,8.511066650390624,0.117828369140625,-0.734405517578125,0.0171356201171875
1700006759510011600,8.52101171875,0.1341094970703125,-0.75714111328125,0.014190673828125
1700006759519957500,8.53095751953125,0.15277099609375,-0.7760772705078125,0.01324462890625
1700006759529902600,8.540902587890624,0.1584930419921875,-0.7987213134765625,0.016937255859375
1700006759539847700,8.55084765625,0.1548614501953125,-0.82373046875,0.017303466796875
1700006759549792500,8.56079248046875,0.1689453125,-0.8516387939453125,0.0090789794921875
1700006759559737600,8.570737548828125,0.1709747314453125,-0.8873748779296875,-0.0033721923828125
1700006759569682700,8.5806826171875,0.162506103515625,-0.920501708984375,-0.0107879638671875
1700006759579628800,8.59062890625,0.174285888671875,-0.9411163330078125,-0.0086517333984375
1700006759589573600,8.60057373046875,0.1769256591796875,-0.96002197265625,0.0060882568359375
1700006759599518500,8.6105185546875,0.1728668212890625,-0.9796600341796875,0.012054443359375
1700006759609463800,8.6204638671875,0.1698760986328125,-1.000640869140625,0.017822265625
1700006759619408600,8.63040869140625,0.1678619384765625,-1.010040283203125,0.0335693359375
1700006759629353500,8.640353515625,0.1994781494140625,-1.009521484375,0.047882080078125
1700006759639299600,8.650299560546875,0.193603515625,-1.001861572265625,0.0531463623046875
1700006759649244700,8.66024462890625,0.1697235107421875,-0.9912109375,0.0560455322265625
1700006759659189800,8.670189697265625,0.1480712890625,-0.9841156005859375,0.0654144287109375
1700006759669134600,8.680134521484375,0.1561431884765625,-0.9837188720703125,0.0673065185546875
1700006759679079400,8.690079345703126,0.1794281005859375,-0.9745635986328125,0.0648040771484375
1700006759689024800,8.700024658203125,0.18756103515625,-0.967132568359375,0.0572357177734375
1700006759698970600,8.709970703125,0.18328857421875,-0.9669342041015625,0.0574951171875
1700006759708915700,8.719915771484375,0.16375732421875,-0.963104248046875,0.0687255859375
1700006759718860500,8.729860595703125,0.1600494384765625,-0.9567413330078125,0.074737548828125
1700006759728805600,8.7398056640625,0.152069091796875,-0.946990966796875,0.081878662109375
1700006759738750700,8.749750732421875,0.1636199951171875,-0.9388275146484375,0.0837249755859375
1700006759748695600,8.759695556640626,0.1722259521484375,-0.927001953125,0.0836944580078125
1700006759758641400,8.769641357421875,0.157318115234375,-0.93572998046875,0.0855560302734375
1700006759768586800,8.779586669921875,0.157135009765625,-0.970672607421875,0.0867767333984375
1700006759778531600,8.789531494140626,0.1477508544921875,-1.010711669921875,0.0759429931640625
1700006759788476700,8.7994765625,0.1344146728515625,-1.0476531982421875,0.0686187744140625
1700006759798421500,8.80942138671875,0.1556243896484375,-1.077392578125,0.0590667724609375
1700006759808366600,8.81936669921875,0.1551361083984375,-1.1009979248046875,0.02935791015625
1700006759818312700,8.829312744140625,0.1263275146484375,-1.10504150390625,0.0107269287109375
1700006759828257500,8.839257568359375,0.1365966796875,-1.1129913330078125,0.00030517578125
1700006759838202600,8.84920263671875,0.1453094482421875,-1.1339874267578125,0.007049560546875
1700006759848147700,8.859147705078126,0.1317138671875,-1.1386260986328125,0.0278778076171875
1700006759858092500,8.869092529296875,0.1073760986328125,-1.1406097412109375,0.034820556640625
1700006759868037600,8.87903759765625,0.1074066162109375,-1.159332275390625,0.025543212890625
1700006759877983500,8.8889833984375,0.131988525390625,-1.188690185546875,0.0178070068359375
1700006759887928600,8.898928466796875,0.158355712890625,-1.2384490966796875,0.01324462890625
1700006759897873700,8.908873779296876,0.19757080078125,-1.299591064453125,0.010528564453125
1700006759907818500,8.918818603515625,0.2303314208984375,-1.3753204345703125,0.007537841796875
1700006759917763600,8.928763671875,0.2408447265625,-1.44964599609375,0.007293701171875
1700006759927708700,8.938708740234375,0.224578857421875,-1.492828369140625,0.0180206298828125
1700006759937654500,8.948654541015625,0.2001800537109375,-1.5105133056640625,0.0275726318359375
1700006759947599600,8.958599609375,0.1788330078125,-1.504180908203125,0.021820068359375
1700006759957544400,8.96854443359375,0.144195556640625,-1.463592529296875,-0.002227783203125
1700006759967489500,8.978489501953124,0.122650146484375,-1.400634765625,-0.035308837890625
1700006759977434400,8.988434326171875,0.0888824462890625,-1.318634033203125,-0.063385009765625
1700006759987379500,8.99837939453125,0.0350799560546875,-1.2312774658203125,-0.0784454345703125
1700006759997325300,9.0083251953125,-0.009063720703125,-1.1504974365234375,-0.0806884765625
1700006760007270700,9.018270751953125,-0.07696533203125,-1.07708740234375,-0.08013916015625
1700006760017215500,9.028215576171876,-0.1282501220703125,-1.0280303955078125,-0.0741424560546875
1700006760027160300,9.038160400390625,-0.1439666748046875,-1.0181732177734375,-0.06402587890625
1700006760037105700,9.048105712890624,-0.1465301513671875,-1.0325927734375,-0.0717926025390625
1700006760047050500,9.058050537109375,-0.1147003173828125,-1.0605010986328125,-0.0792694091796875
1700006760056996600,9.06799658203125,-0.08740234375,-1.0702667236328125,-0.082275390625
1700006760066941400,9.07794140625,-0.050140380859375,-1.051422119140625,-0.0824737548828125
1700006760076886500,9.087886474609375,-0.0102081298828125,-1.0233306884765625,-0.0935516357421875
1700006760086831600,9.09783154296875,0.001922607421875,-1.0075836181640625,-0.095611572265625
1700006760096776400,9.1077763671875,0.0343170166015625,-0.996826171875,-0.08721923828125
1700006760106721300,9.11772119140625,0.063934326171875,-0.987701416015625,-0.0675506591796875
1700006760116667400,9.12766748046875,0.069732666015625,-0.9752197265625,-0.0385589599609375
1700006760126612500,9.137612548828125,0.0657196044921875,-0.960906982421875,-0.0090179443359375
1700006760136557600,9.1475576171875,0.0700531005859375,-0.9482574462890625,0.0181732177734375
1700006760146502400,9.15750244140625,0.0775299072265625,-0.9382171630859375,0.0375823974609375
1700006760156447500,9.167447509765625,0.0887451171875,-0.9303436279296875,0.0432281494140625
1700006760166392600,9.177392578125,0.09393310546875,-0.9253387451171875,0.045928955078125
1700006760176338400,9.18733837890625,0.0905303955078125,-0.92431640625,0.0452880859375
1700006760186283500,9.197283447265624,0.08538818359375,-0.9231719970703125,0.0453643798828125
1700006760196228600,9.207228515625,0.086517333984375,-0.9081573486328125,0.05096435546875
1700006760206173400,9.21717333984375,0.0869140625,-0.9065093994140625,0.0341033935546875
1700006760216118500,9.227118408203125,0.0778961181640625,-0.9131622314453125,0.0064849853515625
1700006760226064400,9.237064453125,0.0685272216796875,-0.882659912109375,0.0147705078125
1700006760236009500,9.247009521484374,0.075347900390625,-0.8535308837890625,0.001861572265625
1700006760245954600,9.25695458984375,0.060333251953125,-0.8200531005859375,-0.0039825439453125
1700006760255899400,9.2668994140625,0.0642547607421875,-0.7889556884765625,0.00909423828125
1700006760265844500,9.276844482421875,0.0703887939453125,-0.7749176025390625,0.0136260986328125
1700006760275789600,9.28678955078125,0.0724334716796875,-0.7599029541015625,0.036529541015625
1700006760285734400,9.296734375,0.0892333984375,-0.763153076171875,0.0444793701171875
1700006760295680500,9.306680419921875,0.0948028564453125,-0.782958984375,0.0440826416015625
1700006760305625300,9.316625244140624,0.1100921630859375,-0.80767822265625,0.0470428466796875
1700006760315570700,9.32657080078125,0.101531982421875,-0.8217315673828125,0.04022216796875
1700006760325515500,9.336515625,0.0889739990234375,-0.8319549560546875,0.034515380859375
1700006760335460400,9.34646044921875,0.113677978515625,-0.8328094482421875,0.03765869140625
1700006760345405700,9.35640576171875,0.125457763671875,-0.828399658203125,0.0411376953125
1700006760355351600,9.3663515625,0.10955810546875,-0.83209228515625,0.031036376953125
1700006760365296600,9.376296630859375,0.1076812744140625,-0.837249755859375,0.0182647705078125
1700006760375241500,9.386241455078125,0.1023101806640625,-0.839324951171875,0.011138916015625
1700006760385186600,9.3961865234375,0.0736541748046875,-0.83648681640625,0.0169219970703125
1700006760395131600,9.406131591796875,0.05584716796875,-0.8372955322265625,0.02679443359375
1700006760405076500,9.416076416015626,0.053009033203125,-0.8406829833984375,0.0373077392578125
1700006760415022600,9.426022705078125,0.0482330322265625,-0.8492431640625,0.0467071533203125
1700006760424967400,9.435967529296875,0.0408935546875,-0.8549346923828125,0.057525634765625
1700006760434912500,9.44591259765625,0.0424652099609375,-0.8579254150390625,0.071014404296875
1700006760444857600,9.455857666015625,0.060516357421875,-0.8553314208984375,0.068389892578125
1700006760454802400,9.465802490234376,0.0901336669921875,-0.850830078125,0.0653228759765625
1700006760464747500,9.47574755859375,0.1083221435546875,-0.8494415283203125,0.063385009765625
1700006760474693600,9.485693603515625,0.113189697265625,-0.8544464111328125,0.0713043212890625
1700006760484638500,9.495638427734375,0.1193084716796875,-0.86834716796875,0.0893707275390625
1700006760494583600,9.50558349609375,0.1239471435546875,-0.8938446044921875,0.10809326171875
1700006760504528600,9.515528564453126,0.123565673828125,-0.92926025390625,0.12701416015625
1700006760514473500,9.525473388671875,0.11322021484375,-0.9691009521484375,0.1348419189453125
1700006760524418600,9.53541845703125,0.0948028564453125,-1.0099029541015625,0.134979248046875
1700006760534364400,9.545364501953125,0.08319091796875,-1.04241943359375,0.138214111328125
1700006760544309500,9.5553095703125,0.0776824951171875,-1.0562286376953125,0.1379547119140625
1700006760554254600,9.565254638671876,0.0890655517578125,-1.0489044189453125,0.1339569091796875
1700006760564199400,9.575199462890625,0.09765625,-1.0196685791015625,0.12347412109375
1700006760574144500,9.58514453125,0.09820556640625,-0.9913787841796875,0.1154022216796875
1700006760584089600,9.595089599609375,0.1037445068359375,-0.9672698974609375,0.1109771728515625
1700006760594035700,9.60503564453125,0.1050262451171875,-0.9456787109375,0.11041259765625
1700006760603980500,9.61498046875,0.080902099609375,-0.939361572265625,0.1186065673828125
1700006760613925400,9.62492529296875,0.056549072265625,-0.9482879638671875,0.1285400390625
1700006760623870700,9.63487060546875,0.0576019287109375,-0.9640045166015625,0.1367950439453125
1700006760633815600,9.644815673828125,0.0506439208984375,-0.9802398681640625,0.1448822021484375
1700006760643760400,9.654760498046874,0.0278778076171875,-0.9974365234375,0.1507568359375
1700006760653706500,9.66470654296875,0.0196685791015625,-1.009063720703125,0.15875244140625
1700006760663651600,9.674651611328125,0.024627685546875,-1.010467529296875,0.166656494140625
1700006760673596700,9.6845966796875,0.0396728515625,-1.0101470947265625,0.1670989990234375
1700006760683541500,9.69454150390625,0.05126953125,-1.0052337646484375,0.1579437255859375
1700006760693486300,9.704486328125,0.0538482666015625,-0.995025634765625,0.143951416015625
1700006760703431700,9.714431640625,0.045623779296875,-0.9817352294921875,0.119903564453125
1700006760713377500,9.72437744140625,0.027984619140625,-0.974517822265625,0.094818115234375
1700006760723322600,9.734322509765626,0.019012451171875,-0.994415283203125,0.0788726806640625
1700006760733267500,9.744267333984375,0.04058837890625,-1.04119873046875,0.0725555419921875
1700006760743212500,9.754212646484374,0.069793701171875,-1.0880126953125,0.06787109375
1700006760753157600,9.76415771484375,0.0830078125,-1.1389007568359375,0.0656280517578125
1700006760763102500,9.7741025390625,0.096160888671875,-1.182525634765625,0.0751800537109375
1700006760773048300,9.78404833984375,0.1206207275390625,-1.2156524658203125,0.08544921875
1700006760782993700,9.79399365234375,0.1215057373046875,-1.2421875,0.09100341796875
1700006760792938500,9.8039384765625,0.106109619140625,-1.2611236572265625,0.0919036865234375
1700006760802883600,9.813883544921875,0.096527099609375,-1.267486572265625,0.0919342041015625
1700006760812828400,9.823828369140625,0.0919952392578125,-1.257568359375,0.0970611572265625
1700006760822773500,9.8337734375,0.0983123779296875,-1.2332611083984375,0.1004180908203125
1700006760832719600,9.8437197265625,0.1018218994140625,-1.20050048828125,0.102783203125
1700006760842664400,9.85366455078125,0.110015869140625,-1.1771392822265625,0.10784912109375
1700006760852609500,9.863609619140625,0.0814208984375,-1.1766357421875,0.1143951416015625
1700006760862554600,9.8735546875,0.058074951171875,-1.1953582763671875,0.1209716796875
1700006760872499500,9.88349951171875,0.052276611328125,-1.2227783203125,0.1057281494140625
1700006760882444500,9.893444580078125,0.0370025634765625,-1.251495361328125,0.0727691650390625
1700006760892390400,9.903390380859374,0.041046142578125,-1.277923583984375,0.0384674072265625
1700006760902335500,9.91333544921875,0.06622314453125,-1.297454833984375,0.006591796875
1700006760912280600,9.923280517578124,0.0911102294921875,-1.303436279296875,-0.0274505615234375
1700006760922225400,9.933225341796875,0.112396240234375,-1.2988433837890625,-0.0591888427734375
1700006760932170800,9.943170654296875,0.125640869140625,-1.2765960693359375,-0.077850341796875
1700006760942115600,9.953115478515626,0.1177520751953125,-1.2427520751953125,-0.095245361328125
1700006760952061400,9.9630615234375,0.1045379638671875,-1.1858367919921875,-0.104095458984375
1700006760962006500,9.973006591796874,0.095916748046875,-1.1068115234375,-0.1100921630859375
1700006760971951400,9.982951416015625,0.099578857421875,-1.0184326171875,-0.11810302734375
1700006760981896400,9.992896484375,0.097503662109375,-0.9400177001953125,-0.122589111328125
1700006760991841500,10.002841552734376,0.0879974365234375,-0.88323974609375,-0.1210784912109375
1700006761001786400,10.012786376953125,0.08990478515625,-0.8473052978515625,-0.1080474853515625
1700006761011732500,10.022732421875,0.0999755859375,-0.8336181640625,-0.0902557373046875
1700006761021677600,10.032677490234375,0.0834808349609375,-0.8384552001953125,-0.0829315185546875
1700006761031622400,10.042622314453125,0.0650787353515625,-0.8685302734375,-0.089569091796875
1700006761041567500,10.0525673828125,0.0773468017578125,-0.9139251708984375,-0.0965576171875
1700006761051512600,10.0625126953125,0.100494384765625,-0.9484710693359375,-0.0852508544921875
1700006761061457700,10.072457763671874,0.118743896484375,-0.9783782958984375,-0.0672454833984375
1700006761071403500,10.082403564453125,0.129913330078125,-0.9990234375,-0.04345703125
1700006761081348400,10.092348388671875,0.120697021484375,-1.005828857421875,-0.014923095703125
1700006761091293700,10.102293701171876,0.1051025390625,-1.0005035400390625,0.010009765625
1700006761101238500,10.112238525390625,0.0916748046875,-0.9862213134765625,0.024688720703125
1700006761111183400,10.122183349609376,0.1053009033203125,-0.9719390869140625,0.02294921875
1700006761121128400,10.13212841796875,0.1248016357421875,-0.9580078125,0.016998291015625
1700006761131074300,10.14207421875,0.136749267578125,-0.9391632080078125,0.005157470703125
1700006761141019600,10.15201953125,0.1400146484375,-0.9165191650390625,-0.005767822265625
1700006761150964500,10.161964599609375,0.1444549560546875,-0.9002532958984375,-0.0142974853515625
1700006761160909300,10.171909423828126,0.156463623046875,-0.8885498046875,-0.0198822021484375
1700006761170854700,10.181854736328125,0.16192626953125,-0.865203857421875,-0.015594482421875
1700006761180799500,10.191799560546874,0.1600799560546875,-0.84197998046875,-0.0076446533203125
1700006761190744300,10.201744384765625,0.162872314453125,-0.8290557861328125,-0.00970458984375
1700006761200690400,10.2116904296875,0.1643524169921875,-0.8195648193359375,-0.011749267578125
1700006761210635500,10.221635498046876,0.1663055419921875,-0.808563232421875,-0.0114288330078125
1700006761220580600,10.23158056640625,0.164520263671875,-0.8003997802734375,-0.010406494140625
1700006761230525400,10.241525390625,0.1575927734375,-0.7919158935546875,-0.0126953125
1700006761240470500,10.251470458984375,0.1538848876953125,-0.7792510986328125,-0.02178955078125
1700006761250415600,10.26141552734375,0.1490936279296875,-0.76556396484375,-0.028961181640625
1700006761260361500,10.271361572265626,0.1409759521484375,-0.7525787353515625,-0.0391082763671875
1700006761270306600,10.281306640625,0.134613037109375,-0.7476348876953125,-0.0442047119140625
1700006761280251400,10.29125146484375,0.1281585693359375,-0.7499847412109375,-0.0388946533203125
1700006761290196500,10.301196533203125,0.11785888671875,-0.7535247802734375,-0.0360107421875
1700006761300141600,10.3111416015625,0.1121063232421875,-0.7646636962890625,-0.03228759765625
1700006761310086400,10.32108642578125,0.109710693359375,-0.77850341796875,-0.0270843505859375
1700006761320032500,10.331032470703125,0.109405517578125,-0.79412841796875,-0.0245819091796875
1700006761329977600,10.3409775390625,0.1139373779296875,-0.8106842041015625,-0.02239990234375
1700006761339922400,10.35092236328125,0.1255035400390625,-0.820281982421875,-0.0212554931640625
1700006761349867500,10.360867431640624,0.1324005126953125,-0.831634521484375,-0.02874755859375
1700006761359812600,10.3708125,0.13690185546875,-0.85345458984375,-0.0419921875
1700006761369757400,10.38075732421875,0.138214111328125,-0.8701629638671875,-0.04473876953125
1700006761379703600,10.39070361328125,0.101959228515625,-0.8798675537109375,-0.0435943603515625
1700006761389648400,10.4006484375,0.084716796875,-0.8986968994140625,-0.0426177978515625
1700006761399593500,10.410593505859374,0.1378326416015625,-0.9186859130859375,-0.04327392578125
1700006761409538600,10.42053857421875,0.15386962890625,-0.932586669921875,-0.0525970458984375
1700006761419483400,10.4304833984375,0.1350860595703125,-0.9506988525390625,-0.063262939453125
1700006761429428500,10.440428466796876,0.1557464599609375,-0.968109130859375,-0.073211669921875
1700006761439374300,10.450374267578125,0.1812744140625,-0.975555419921875,-0.0802459716796875
1700006761449319700,10.460319580078124,0.1790771484375,-0.9822540283203125,-0.088775634765625
1700006761459264500,10.470264404296875,0.177581787109375,-1.0035858154296875,-0.08843994140625
1700006761469209300,10.480209228515625,0.18914794921875,-1.0330657958984375,-0.0817413330078125
1700006761479154700,10.49015478515625,0.20025634765625,-1.0576934814453125,-0.0779266357421875
1700006761489099500,10.500099609375,0.2050628662109375,-1.079498291015625,-0.082763671875
1700006761499045600,10.510045654296874,0.1987152099609375,-1.106414794921875,-0.07769775390625
1700006761508990500,10.519990478515625,0.1983184814453125,-1.1259002685546875,-0.057586669921875
1700006761518935600,10.529935546875,0.1973876953125,-1.1314697265625,-0.039520263671875
1700006761528880600,10.539880615234376,0.1800689697265625,-1.14617919921875,-0.033935546875
1700006761538825500,10.549825439453125,0.1657562255859375,-1.18017578125,-0.0412139892578125
1700006761548770300,10.559770263671876,0.1624908447265625,-1.2260284423828125,-0.058197021484375
1700006761558716400,10.56971630859375,0.1643218994140625,-1.2821044921875,-0.0789642333984375
1700006761568661500,10.57966162109375,0.159912109375,-1.3494873046875,-0.101593017578125
1700006761578606600,10.589606689453126,0.1614990234375,-1.4051055908203125,-0.0992889404296875
1700006761588551400,10.599551513671875,0.167572021484375,-1.4415435791015625,-0.0729217529296875
1700006761598496500,10.60949658203125,0.1696624755859375,-1.4668426513671875,-0.042327880859375
1700006761608441600,10.619441650390625,0.161590576171875,-1.4832000732421875,-0.0252227783203125
1700006761618387500,10.629387451171874,0.154571533203125,-1.4929962158203125,-0.0309906005859375
1700006761628332500,10.63933251953125,0.1162261962890625,-1.4854888916015625,-0.0530242919921875
1700006761638277600,10.649277587890625,0.0888671875,-1.4523468017578125,-0.08355712890625
1700006761648222500,10.659222412109376,0.0909423828125,-1.407012939453125,-0.1192626953125
1700006761658167600,10.66916748046875,0.074615478515625,-1.3377838134765625,-0.13958740234375
1700006761668112600,10.679112548828124,0.0518035888671875,-1.2472991943359375,-0.1414031982421875
1700006761678058800,10.689058837890625,0.012420654296875,-1.155487060546875,-0.13592529296875
1700006761688003600,10.699003662109375,-0.030303955078125,-1.0732879638671875,-0.121795654296875
1700006761697948400,10.708948486328126,-0.0678558349609375,-1.002716064453125,-0.093475341796875
1700006761707893500,10.7188935546875,-0.119293212890625,-0.9486846923828125,-0.06695556640625
1700006761717838600,10.728838623046874,-0.15838623046875,-0.91357421875,-0.0439910888671875
1700006761727783400,10.738783447265625,-0.1717987060546875,-0.90032958984375,-0.0310516357421875
1700006761737729500,10.7487294921875,-0.1691436767578125,-0.900665283203125,-0.0243377685546875
1700006761747674400,10.75867431640625,-0.1399993896484375,-0.9130401611328125,-0.0181884765625
1700006761757619700,10.76861962890625,-0.1117401123046875,-0.92730712890625,-0.0240020751953125
1700006761767564500,10.778564453125,-0.0879058837890625,-0.9364471435546875,-0.03631591796875
1700006761777509400,10.78850927734375,-0.0653228759765625,-0.943695068359375,-0.0429534912109375
1700006761787454700,10.798454833984374,-0.03790283203125,-0.9536285400390625,-0.0364990234375
1700006761797400600,10.808400634765626,-0.012969970703125,-0.94940185546875,-0.014434814453125
1700006761807345700,10.818345703125,0.0032501220703125,-0.9302825927734375,0.007415771484375
1700006761817290500,10.82829052734375,-0.0005950927734375,-0.9111328125,0.03533935546875
1700006761827235600,10.838235595703125,-0.0045623779296875,-0.9144287109375,0.0599212646484375
1700006761837180700,10.8481806640625,0.0072021484375,-0.9395294189453125,0.0820159912109375
1700006761847125500,10.85812548828125,0.0101318359375,-0.9570770263671875,0.0842132568359375
1700006761857071400,10.8680712890625,0.00579833984375,-0.9331512451171875,0.0930938720703125
1700006761867016400,10.878016357421876,0.03173828125,-0.9133148193359375,0.1038055419921875
1700006761876961500,10.88796142578125,0.0646820068359375,-0.912322998046875,0.0843658447265625
1700006761886906600,10.89790673828125,0.0762939453125,-0.9146575927734375,0.0695037841796875
1700006761896851500,10.9078515625,0.093505859375,-0.9178009033203125,0.0766754150390625
1700006761906796500,10.917796630859375,0.093597412109375,-0.921539306640625,0.0944061279296875
1700006761916742700,10.92774267578125,0.058746337890625,-0.92901611328125,0.115386962890625
1700006761926687500,10.9376875,0.0944671630859375,-0.9301300048828125,0.1439666748046875
1700006761936632600,10.947632568359374,0.1303863525390625,-0.9179534912109375,0.157684326171875
1700006761946577700,10.95757763671875,0.1158599853515625,-0.902862548828125,0.1596527099609375
1700006761956522500,10.9675224609375,0.12615966796875,-0.8895263671875,0.156585693359375
1700006761966467600,10.977467529296876,0.1381683349609375,-0.8744354248046875,0.14996337890625
1700006761976413000,10.987412841796875,0.1285552978515625,-0.8553619384765625,0.1407623291015625
1700006761986358000,10.99735791015625,0.120758056640625,-0.8426361083984375,0.1371612548828125
1700006761996303000,11.00730322265625,0.1132659912109375,-0.8301849365234375,0.132049560546875
1700006762006248000,11.017248046875,0.1119537353515625,-0.812591552734375,0.1274871826171875
1700006762016193000,11.027193115234375,0.1102142333984375,-0.793670654296875,0.120269775390625
1700006762026138000,11.03713818359375,0.0936279296875,-0.78070068359375,0.101165771484375
1700006762036083000,11.0470830078125,0.07379150390625,-0.7633819580078125,0.0886383056640625
1700006762046029000,11.057029052734375,0.0699462890625,-0.7472686767578125,0.0841217041015625
1700006762055974000,11.066973876953124,0.076934814453125,-0.739959716796875,0.076812744140625
1700006762065919000,11.0769189453125,0.077911376953125,-0.7400665283203125,0.064300537109375
1700006762075864000,11.086864013671875,0.0849151611328125,-0.7438507080078125,0.0572052001953125
1700006762085809000,11.096808837890626,0.096923828125,-0.7509918212890625,0.0594635009765625
1700006762095754000,11.10675390625,0.1035003662109375,-0.76544189453125,0.060943603515625
1700006762105700000,11.1167001953125,0.10467529296875,-0.784637451171875,0.062896728515625
1700006762115645000,11.12664501953125,0.1121063232421875,-0.8033599853515625,0.0680999755859375
1700006762125590000,11.136590087890625,0.1197052001953125,-0.8239898681640625,0.074981689453125
1700006762135535000,11.14653515625,0.1176605224609375,-0.845703125,0.0870819091796875
1700006762145480000,11.15647998046875,0.119598388671875,-0.874481201171875,0.091705322265625
1700006762155425000,11.166425048828126,0.125640869140625,-0.900665283203125,0.0917510986328125
1700006762165371000,11.176370849609375,0.118072509765625,-0.9205169677734375,0.092803955078125
1700006762175316000,11.18631591796875,0.13067626953125,-0.933349609375,0.1003570556640625
1700006762185261000,11.196260986328125,0.1577301025390625,-0.93170166015625,0.1136016845703125
1700006762195206000,11.206205810546875,0.1712799072265625,-0.93060302734375,0.1165313720703125
1700006762205151000,11.21615087890625,0.1773834228515625,-0.9369354248046875,0.116485595703125
1700006762215096000,11.226095947265625,0.1800384521484375,-0.94830322265625,0.11328125
1700006762225042200,11.236042236328124,0.163543701171875,-0.9608612060546875,0.12164306640625
1700006762234987000,11.245987060546875,0.141204833984375,-0.9759521484375,0.1397857666015625
1700006762244931800,11.255931884765625,0.12274169921875,-0.990753173828125,0.1558685302734375
1700006762254877200,11.265877197265626,0.1090545654296875,-1.0056610107421875,0.170257568359375
1700006762264822000,11.275822021484375,0.1039276123046875,-1.0188751220703125,0.1777496337890625
1700006762274766800,11.285766845703124,0.1065216064453125,-1.024322509765625,0.1848297119140625
1700006762284713000,11.295712890625,0.100341796875,-1.0276947021484375,0.188385009765625
1700006762294658000,11.305657958984375,0.093780517578125,-1.0318450927734375,0.1873016357421875
1700006762304603100,11.31560302734375,0.10638427734375,-1.0415496826171875,0.18402099609375
1700006762314548000,11.3255478515625,0.1194610595703125,-1.0515899658203125,0.1776123046875
1700006762324493000,11.3354931640625,0.119140625,-1.0630035400390625,0.1683197021484375
1700006762334438100,11.345438232421875,0.120574951171875,-1.0659332275390625,0.16302490234375
1700006762344384000,11.355384033203125,0.115936279296875,-1.053436279296875,0.1474456787109375
1700006762354329000,11.3653291015625,0.1023101806640625,-1.03619384765625,0.13232421875
1700006762364274000,11.37527392578125,0.0873565673828125,-1.0337982177734375,0.124969482421875
1700006762374219000,11.385218994140626,0.077850341796875,-1.0493316650390625,0.130096435546875
1700006762384164000,11.3951640625,0.0854949951171875,-1.0730133056640625,0.145233154296875
1700006762394109000,11.40510888671875,0.092315673828125,-1.0836639404296875,0.1545562744140625
1700006762404055000,11.415054931640626,0.0732269287109375,-1.08837890625,0.1502685546875
1700006762414000000,11.425000244140625,0.053375244140625,-1.1110382080078125,0.1322479248046875
1700006762423945000,11.434945068359376,0.0836029052734375,-1.1409454345703125,0.1137237548828125
1700006762433890000,11.44489013671875,0.126983642578125,-1.156951904296875,0.0951995849609375
1700006762443835100,11.454835205078124,0.0732879638671875,-1.1516876220703125,0.069488525390625
1700006762453780000,11.464780029296875,0.0500030517578125,-1.1383056640625,0.0382232666015625
1700006762463726000,11.47472607421875,0.0734405517578125,-1.114776611328125,-0.0078887939453125
1700006762473671000,11.4846708984375,0.05316162109375,-1.0833892822265625,-0.0537261962890625
1700006762483616000,11.494615966796875,0.0475006103515625,-1.050140380859375,-0.0797271728515625
1700006762493561000,11.50456103515625,0.0630340576171875,-1.00921630859375,-0.093719482421875
1700006762503506000,11.514505859375,0.0601654052734375,-0.963165283203125,-0.11077880859375
1700006762513451000,11.524450927734375,0.042877197265625,-0.9290008544921875,-0.124786376953125
1700006762523396900,11.53439697265625,0.029083251953125,-0.9092559814453125,-0.13470458984375
1700006762533342200,11.54434228515625,0.035400390625,-0.8998260498046875,-0.1370849609375
1700006762543287000,11.554287109375,0.055023193359375,-0.8975830078125,-0.1315765380859375
1700006762553232000,11.56423193359375,0.0600738525390625,-0.904876708984375,-0.1251678466796875
1700006762563177200,11.57417724609375,0.0539703369140625,-0.9255828857421875,-0.1228485107421875
1700006762573122000,11.5841220703125,0.0643310546875,-0.947174072265625,-0.1234130859375
1700006762583068200,11.594068115234375,0.0796661376953125,-0.963134765625,-0.1222686767578125
1700006762593013000,11.604012939453124,0.0867767333984375,-0.987274169921875,-0.12493896484375
1700006762602958000,11.6139580078125,0.0972747802734375,-1.0043182373046875,-0.1147918701171875
1700006762612903200,11.623903076171874,0.1058502197265625,-1.00579833984375,-0.0914306640625
1700006762622848000,11.633847900390625,0.112884521484375,-1.0059967041015625,-0.0728759765625
1700006762632792800,11.643792724609375,0.115753173828125,-1.0148468017578125,-0.052215576171875
1700006762642738200,11.65373828125,0.12860107421875,-1.0263519287109375,-0.03704833984375
1700006762652684000,11.66368408203125,0.1469879150390625,-1.0368194580078125,-0.028564453125
1700006762662629000,11.673629150390624,0.151702880859375,-1.03558349609375,-0.0206756591796875
1700006762672574000,11.683573974609375,0.1614837646484375,-1.02313232421875,-0.019866943359375
1700006762682519000,11.69351904296875,0.155364990234375,-1.00140380859375,-0.0301361083984375
1700006762692464000,11.703464111328126,0.135772705078125,-0.9803009033203125,-0.0402984619140625
1700006762702409000,11.713408935546875,0.13720703125,-0.96014404296875,-0.0479278564453125
1700006762712354800,11.723354736328124,0.1496124267578125,-0.9395904541015625,-0.0501251220703125
1700006762722300200,11.733300048828125,0.1579742431640625,-0.9266357421875,-0.053863525390625
1700006762732245000,11.743244873046875,0.1597442626953125,-0.9156036376953125,-0.05389404296875
1700006762742190000,11.753190185546876,0.1640777587890625,-0.908203125,-0.0518035888671875
1700006762752135000,11.763135009765625,0.1705169677734375,-0.90643310546875,-0.0497589111328125
1700006762762080000,11.773080078125,0.1678619384765625,-0.910980224609375,-0.048431396484375
1700006762772026000,11.783026123046875,0.1580047607421875,-0.914825439453125,-0.04547119140625
1700006762781971000,11.792970947265625,0.1584320068359375,-0.9164581298828125,-0.0379638671875
1700006762791916000,11.802916015625,0.163604736328125,-0.9193878173828125,-0.0302581787109375
1700006762801861000,11.812861083984375,0.173187255859375,-0.920806884765625,-0.0214080810546875
1700006762811806000,11.822805908203126,0.178192138671875,-0.9203338623046875,-0.013397216796875
1700006762821751000,11.8327509765625,0.1862030029296875,-0.9168853759765625,-0.0073699951171875
1700006762831697000,11.84269677734375,0.192657470703125,-0.913482666015625,-0.009429931640625
1700006762841642000,11.85264208984375,0.198089599609375,-0.90814208984375,-0.0112152099609375
1700006762851587000,11.862587158203125,0.2130279541015625,-0.90704345703125,-0.0165252685546875
1700006762861532000,11.872531982421876,0.224365234375,-0.904571533203125,-0.021240234375
1700006762871477200,11.882477294921875,0.21929931640625,-0.8992919921875,-0.0197601318359375
1700006762881422000,11.892422119140624,0.2081451416015625,-0.89434814453125,-0.014984130859375
1700006762891368000,11.902367919921875,0.204010009765625,-0.8934173583984375,-0.00921630859375
1700006762901313000,11.91231298828125,0.2088775634765625,-0.896820068359375,-0.006011962890625
1700006762911257000,11.922257080078126,0.206390380859375,-0.9097747802734375,-0.0078277587890625
1700006762921203000,11.932202880859375,0.1991424560546875,-0.93170166015625,-0.0087127685546875
1700006762931148000,11.94214794921875,0.2057342529296875,-0.9503936767578125,-0.014068603515625
1700006762941092900,11.9520927734375,0.2174835205078125,-0.9735260009765625,-0.0267486572265625
1700006762951038200,11.9620380859375,0.2244110107421875,-1.0025482177734375,-0.05145263671875
1700006762960983000,11.971983154296876,0.2328033447265625,-1.0284881591796875,-0.062286376953125
1700006762970927900,11.981927978515625,0.2051544189453125,-1.042236328125,-0.0593109130859375
1700006762980873500,11.99187353515625,0.2095947265625,-1.051300048828125,-0.0415496826171875
1700006762990818600,12.001818603515625,0.2209930419921875,-1.066558837890625,-0.022125244140625
1700006763000763600,12.011763671875,0.176422119140625,-1.1065521240234375,-0.007232666015625
1700006763010708500,12.02170849609375,0.1722259521484375,-1.1418609619140625,0.0203857421875
1700006763020653600,12.031653564453125,0.1925506591796875,-1.1545562744140625,0.0428009033203125
1700006763030598700,12.0415986328125,0.1558990478515625,-1.167510986328125,0.042938232421875
1700006763040544500,12.05154443359375,0.1190643310546875,-1.2059173583984375,0.0319976806640625
1700006763050489600,12.061489501953124,0.125396728515625,-1.252899169921875,0.0283966064453125
1700006763060434700,12.0714345703125,0.136505126953125,-1.2845611572265625,0.0273895263671875
1700006763070379500,12.081379638671875,0.11810302734375,-1.2983551025390625,0.030303955078125
1700006763080324600,12.09132470703125,0.0881500244140625,-1.29443359375,0.029449462890625
1700006763090269400,12.10126953125,0.07769775390625,-1.2601318359375,0.021392822265625
1700006763100215600,12.111215576171874,0.068450927734375,-1.193328857421875,0.013336181640625
1700006763110160600,12.12116064453125,0.052764892578125,-1.109405517578125,0.0063018798828125
1700006763120105500,12.13110546875,0.03662109375,-1.0210113525390625,0.002899169921875
1700006763130050600,12.141050537109376,0.0210113525390625,-0.9398345947265625,0.005767822265625
1700006763139995600,12.15099560546875,0.0106658935546875,-0.8792724609375,0.00970458984375
1700006763149940500,12.1609404296875,0.00762939453125,-0.8459625244140625,0.025848388671875
1700006763159885600,12.170885498046875,0.006103515625,-0.8349609375,0.050537109375
1700006763169831400,12.18083154296875,0.0106353759765625,-0.850860595703125,0.07421875
1700006763179776800,12.19077685546875,0.0240478515625,-0.8839263916015625,0.0780181884765625
1700006763189721600,12.2007216796875,0.041168212890625,-0.91693115234375,0.065582275390625
1700006763199666400,12.21066650390625,0.048980712890625,-0.9365997314453125,0.05615234375
1700006763209611800,12.22061181640625,0.04400634765625,-0.950836181640625,0.0516815185546875
1700006763219556600,12.230556640625,0.0241851806640625,-0.96923828125,0.0554962158203125
1700006763229502700,12.240502685546875,0.0318450927734375,-0.990386962890625,0.062286376953125
1700006763239447600,12.250447509765625,0.055023193359375,-1.0036773681640625,0.0725860595703125
1700006763249392400,12.260392333984376,0.0648345947265625,-1.00701904296875,0.074951171875
1700006763259337700,12.270337646484375,0.0723724365234375,-1.0168914794921875,0.06683349609375
1700006763269282600,12.280282470703124,0.0803375244140625,-1.0254058837890625,0.0541534423828125
1700006763279227400,12.290227294921875,0.0836639404296875,-1.0217437744140625,0.0453033447265625
1700006763289173500,12.300173583984375,0.081573486328125,-1.0105438232421875,0.0489349365234375
1700006763299118600,12.31011865234375,0.0812530517578125,-0.9958953857421875,0.05889892578125
1700006763309063700,12.320063720703125,0.0793914794921875,-0.9753875732421875,0.061737060546875
1700006763319009500,12.330009521484374,0.08282470703125,-0.9547271728515625,0.0706329345703125
1700006763328954600,12.33995458984375,0.089202880859375,-0.939239501953125,0.082122802734375
1700006763338899700,12.349899658203125,0.095001220703125,-0.9239654541015625,0.0933685302734375
1700006763348844500,12.359844482421876,0.1063690185546875,-0.90814208984375,0.1029510498046875
1700006763358789600,12.36978955078125,0.1179962158203125,-0.8957366943359375,0.10528564453125
1700006763368734700,12.379734619140624,0.1199798583984375,-0.891387939453125,0.0992889404296875
1700006763378679600,12.389679443359375,0.1172943115234375,-0.8924102783203125,0.0900726318359375
1700006763388625700,12.399625732421875,0.1162261962890625,-0.8966217041015625,0.0826416015625
1700006763398570500,12.409570556640626,0.1156768798828125,-0.90545654296875,0.075347900390625
1700006763408515600,12.419515625,0.1142120361328125,-0.9150238037109375,0.0710296630859375
1700006763418460700,12.429460693359376,0.1109161376953125,-0.92852783203125,0.0669403076171875
1700006763428405500,12.439405517578125,0.10638427734375,-0.9358367919921875,0.068450927734375
1700006763438350600,12.4493505859375,0.103668212890625,-0.9459228515625,0.0615234375
1700006763448296400,12.45929638671875,0.1052093505859375,-0.960052490234375,0.0498809814453125
1700006763458241800,12.46924169921875,0.1097869873046875,-0.9671478271484375,0.042633056640625
1700006763468186600,12.4791865234375,0.1131439208984375,-0.9625396728515625,0.03863525390625
1700006763478131500,12.48913134765625,0.10784912109375,-0.9557037353515625,0.040252685546875
1700006763488076800,12.499076904296874,0.1049957275390625,-0.949981689453125,0.0455780029296875
1700006763498021600,12.509021728515625,0.0834503173828125,-0.94659423828125,0.0595245361328125
1700006763507967700,12.5189677734375,0.0873870849609375,-0.9598236083984375,0.074127197265625
1700006763517912600,12.52891259765625,0.1167449951171875,-0.970306396484375,0.087188720703125
1700006763527857700,12.538857666015625,0.0940704345703125,-0.9797515869140625,0.084930419921875
1700006763537802800,12.548802734375,0.0502166748046875,-0.9954986572265625,0.0892333984375
1700006763547747600,12.55874755859375,0.0579986572265625,-1.0146636962890625,0.104766845703125
1700006763557692400,12.5686923828125,0.0792694091796875,-1.034637451171875,0.114990234375
1700006763567638500,12.578638427734376,0.0854034423828125,-1.053955078125,0.1160125732421875
1700006763577583600,12.58858349609375,0.098114013671875,-1.069732666015625,0.107757568359375
1700006763587528700,12.59852880859375,0.1156463623046875,-1.083587646484375,0.0948486328125
1700006763597473500,12.6084736328125,0.1314239501953125,-1.093505859375,0.082794189453125
1700006763607418600,12.618418701171874,0.150238037109375,-1.09088134765625,0.072265625
1700006763617363700,12.62836376953125,0.15594482421875,-1.0770263671875,0.05938720703125
1700006763627309600,12.6383095703125,0.149322509765625,-1.0614776611328125,0.047760009765625
1700006763637254700,12.648254638671874,0.1484527587890625,-1.0427093505859375,0.0391693115234375
1700006763647199700,12.65819970703125,0.152191162109375,-1.029571533203125,0.0334320068359375
1700006763657144600,12.66814453125,0.1570892333984375,-1.0221099853515625,0.0303192138671875
1700006763667089700,12.678089599609375,0.1675567626953125,-1.020416259765625,0.030487060546875
1700006763677034500,12.688034423828125,0.1727294921875,-1.0331573486328125,0.02667236328125
1700006763686980600,12.697980712890624,0.1681976318359375,-1.0484771728515625,0.030059814453125
1700006763696925700,12.70792578125,0.1556854248046875,-1.062652587890625,0.0369415283203125
1700006763706870500,12.71787060546875,0.13323974609375,-1.0771942138671875,0.0477447509765625
1700006763716815600,12.727815673828125,0.1074371337890625,-1.08160400390625,0.0560150146484375
1700006763726760700,12.7377607421875,0.1036224365234375,-1.0897979736328125,0.0550689697265625
1700006763736705500,12.74770556640625,0.1102447509765625,-1.1160736083984375,0.044158935546875
1700006763746650600,12.757650634765625,0.1140289306640625,-1.1561279296875,0.0242156982421875
1700006763756596500,12.767596435546874,0.14068603515625,-1.204864501953125,-0.0089569091796875
1700006763766541600,12.77754150390625,0.173980712890625,-1.2281341552734375,-0.0413360595703125
1700006763776486700,12.787486572265625,0.1656341552734375,-1.1690673828125,-0.06707763671875
1700006763786431500,12.797431396484376,0.1234283447265625,-1.0718536376953125,-0.1042633056640625
1700006763796376800,12.807376953125,0.0894775390625,-0.9800262451171875,-0.1518096923828125
1700006763806321700,12.81732177734375,0.0880126953125,-0.894317626953125,-0.19268798828125
1700006763816267500,12.827267578125,0.1007232666015625,-0.8310546875,-0.223876953125
