time,seconds_elapsed,z,y,x
1700006751029262600,0.0402626953125,-8.570879539787768,-4.761309269420802,-0.2008707647277042
1700006751039207400,0.05020751953125,-8.574162799242139,-4.7559053645506495,-0.18837414338393135
1700006751049152500,0.060152587890625,-8.581159526261686,-4.743662261310219,-0.17819135194048286
1700006751059097600,0.07009765625,-8.591564600419998,-4.725054591473937,-0.1710587966468185
1700006751069043500,0.08004345703125,-8.604847860363126,-4.700950370047987,-0.1674619777312502
1700006751078988500,0.089988525390625,-8.619926187029481,-4.6732510467395185,-0.16728417347893118
1700006751088933400,0.099933349609375,-8.635505448955296,-4.644307568588853,-0.16982540066065266
1700006751098878700,0.109878662109375,-8.650651580160856,-4.615845444214344,-0.17489510514037682
1700006751108823600,0.119823486328125,-8.664885857218504,-4.5888159829914565,-0.18139475109167397
1700006751118768400,0.129768310546875,-8.678387143826484,-4.562977192857861,-0.18767954871589318
1700006751128714500,0.139714599609375,-8.691462313976883,-4.537855318821967,-0.19166109263272954
1700006751138659600,0.14965966796875,-8.704391353654861,-4.512978651718795,-0.19230644133156163
1700006751148604700,0.159604736328125,-8.717216932958364,-4.488235840128362,-0.19039801389435304
1700006751158549500,0.169549560546875,-8.729242886316776,-4.464970992136001,-0.18636990915574134
1700006751168494300,0.179494384765625,-8.73938200301528,-4.445291016893089,-0.18158280274337157
1700006751178440400,0.1894404296875,-8.746904215213656,-4.430630623377859,-0.17764453171268105
1700006751188385500,0.199385498046875,-8.751776205164193,-4.421092979703843,-0.17531596090095117
1700006751198330400,0.209330322265625,-8.754384926357865,-4.415953278727829,-0.17459504448156804
1700006751208275500,0.219275390625,-8.75541953010261,-4.413821819657087,-0.17660693229325114
1700006751218220500,0.229220458984375,-8.755603654497861,-4.413190243755281,-0.18314212448196485
1700006751228165600,0.23916552734375,-8.755218454572558,-4.413422883467376,-0.19552613403042776
1700006751238111500,0.249111572265625,-8.75426626841426,-4.414532013753056,-0.21240771072646603
1700006751248056300,0.259056396484375,-8.752571154934166,-4.416981744992733,-0.23056226650038733
1700006751258001700,0.269001708984375,-8.750026731148361,-4.421182119292021,-0.2460897617063485
1700006751267946500,0.278946533203125,-8.74734202210903,-4.425956786347926,-0.2555411336027086
1700006751277891300,0.288891357421875,-8.745601900443434,-4.429298790252209,-0.2571967735889368
1700006751287837400,0.29883740234375,-8.74602041811645,-4.428836433437467,-0.2508323165909387
1700006751297782500,0.308782470703125,-8.749289649045467,-4.423120101617276,-0.23733146837437524
1700006751307727600,0.3187275390625,-8.75538095165789,-4.411912771165371,-0.2207163423284888
1700006751317672400,0.32867236328125,-8.763781115734577,-4.396051477427781,-0.20310732814073562
1700006751327617300,0.3386171875,-8.773406437692046,-4.377549606053531,-0.1865054086362943
1700006751337563400,0.3485634765625,-8.783235757789015,-4.35839716181606,-0.1718367039504461
1700006751347508500,0.358508544921875,-8.792586354458331,-4.340038498304784,-0.15772011672202496
1700006751357453600,0.36845361328125,-8.801070105165243,-4.32334484539628,-0.14226933088093063
1700006751367398400,0.3783984375,-8.808238097098469,-4.30924559289515,-0.12538818344315514
1700006751377343500,0.388343505859375,-8.814165733581781,-4.297563046146929,-0.10870164526202715
1700006751387288600,0.39828857421875,-8.819210157489776,-4.287563045658171,-0.09337222991143353
1700006751397234400,0.408234375,-8.823563092002273,-4.278886110466718,-0.07903694016472436
1700006751407179500,0.418179443359375,-8.827678710627556,-4.270597297810018,-0.06685649036434478
1700006751417124600,0.42812451171875,-8.831929353809356,-4.261928545925021,-0.058056901474180626
1700006751427069400,0.4380693359375,-8.836737630873918,-4.252007748152315,-0.053677978570479894
1700006751437014500,0.4480146484375,-8.842399309897422,-4.240207420243323,-0.0547561291960068
1700006751446960400,0.45796044921875,-8.848443850758672,-4.227507220885157,-0.060124766389955765
1700006751456905700,0.46790576171875,-8.854200806850194,-4.215321985311806,-0.06764390071525704
1700006751466850600,0.4778505859375,-8.858922574675082,-4.205233137495815,-0.07675164223914034
1700006751476795400,0.48779541015625,-8.862578759095072,-4.1973163730219,-0.08724662317060865
1700006751486740500,0.497740478515625,-8.865321335801482,-4.191233545976877,-0.10010764824682845
1700006751496685600,0.507685546875,-8.867419769385457,-4.1862934592261904,-0.1191820496788714
1700006751506631700,0.517631591796875,-8.869794681823253,-4.180389788140356,-0.1465159646078944
1700006751516576500,0.527576416015625,-8.873004291519521,-4.1721997596830125,-0.18145024413857608
1700006751526521300,0.537521240234375,-8.87709009952843,-4.161561753551662,-0.22149587533362208
1700006751536466700,0.547466796875,-8.881846938666701,-4.148985765095055,-0.2628568269109353
1700006751546411500,0.55741162109375,-8.886645863381027,-4.1359249157309526,-0.30336839511729774
1700006751556357600,0.567357666015625,-8.890210862386226,-4.125378095014393,-0.3402714905029163
1700006751566302500,0.577302490234375,-8.891514346200227,-4.11979737227261,-0.3723228715410456
1700006751576247600,0.58724755859375,-8.88941825070381,-4.1219434443905945,-0.39775658800508823
1700006751586192600,0.597192626953125,-8.883292461299895,-4.133655509494245,-0.41278201544042675
1700006751596137500,0.607137451171875,-8.87360401097834,-4.154193562871217,-0.41498832984566686
1700006751606082600,0.61708251953125,-8.861228513529896,-4.181488397032022,-0.4051793949496001
1700006751616028700,0.627028564453125,-8.847692155608534,-4.211721914993226,-0.38746008878778665
1700006751625973500,0.636973388671875,-8.83460880215168,-4.240647272965312,-0.370110163927637
1700006751635918600,0.646918701171875,-8.823616868016122,-4.264023472377658,-0.36368747393637896
1700006751645863400,0.656863525390625,-8.816216820892691,-4.278541827073693,-0.37253662388958036
1700006751655808500,0.66680859375,-8.813526851156354,-4.282023239448666,-0.3954805328318849
1700006751665754600,0.676754638671875,-8.816661642050743,-4.272196257439256,-0.4303475192800164
1700006751675699500,0.686699462890625,-8.82627176643908,-4.247940937104821,-0.47149607021566475
1700006751685644500,0.69664453125,-8.841822386792302,-4.210927842006087,-0.5105370178801939
1700006751695589600,0.706589599609375,-8.8612963180691,-4.166109626114368,-0.5397654504520818
1700006751705534500,0.716534423828125,-8.882088930729031,-4.119641889449953,-0.5544650799991563
1700006751715479600,0.7264794921875,-8.901479275375603,-4.0777389764830465,-0.5532596862647682
1700006751725425400,0.73642529296875,-8.917354305377602,-4.045167663224041,-0.5364697333749383
1700006751735370500,0.74637060546875,-8.928594076794385,-4.024152932246029,-0.5067416441852226
1700006751745315600,0.756315673828125,-8.93464797000587,-4.015311746403575,-0.4687400495057925
1700006751755260400,0.766260498046875,-8.935770252034068,-4.0173499742329115,-0.42812282896786924
1700006751765205500,0.77620556640625,-8.932490499711037,-4.0286064045235515,-0.38901513621006156
1700006751775151600,0.786151611328125,-8.925316078037023,-4.047776092156767,-0.35302900953888894
1700006751785096400,0.796096435546875,-8.914670180860162,-4.073879378445446,-0.3202255680244416
1700006751795041500,0.80604150390625,-8.900898260617256,-4.1061674908488985,-0.2894510019890964
1700006751804986400,0.815986328125,-8.884252246242761,-4.143989856503904,-0.2603578314357437
1700006751814931700,0.825931640625,-8.865482663843036,-4.185574789562821,-0.23360534225702284
1700006751824876500,0.83587646484375,-8.846064262145758,-4.227599867604673,-0.2119749453323893
1700006751834822400,0.845822509765625,-8.82768806297779,-4.266556790247559,-0.19697008576104416
1700006751844767500,0.855767578125,-8.811100500792264,-4.301098526796698,-0.18825722073968498
1700006751854712600,0.865712646484375,-8.796685021948814,-4.330625065532327,-0.1854880848199129
1700006751864657400,0.875657470703125,-8.784167485681175,-4.355880502820015,-0.18733157552843913
1700006751874602500,0.8856025390625,-8.773068584039807,-4.378012255129218,-0.19146889452887697
1700006751884548400,0.89554833984375,-8.76286107828021,-4.398130037267506,-0.1977462394990027
1700006751894493700,0.90549365234375,-8.753195424312352,-4.416956026029586,-0.20603061344260348
1700006751904438500,0.9154384765625,-8.743974006980658,-4.4347538407877085,-0.21509243803210557
1700006751914383400,0.92538330078125,-8.735095703998207,-4.4518286019682884,-0.22296242248853668
1700006751924328400,0.935328369140625,-8.726495633435249,-4.468437206941843,-0.22743759514121337
1700006751934273500,0.9452734375,-8.71733617542386,-4.486327376158536,-0.22651054342417046
1700006751944219600,0.9552197265625,-8.706810105234384,-4.507102160900831,-0.21878294484680516
1700006751954164500,0.96516455078125,-8.694647958275675,-4.5312113507628435,-0.20398177288770675
1700006751964109300,0.975109375,-8.680156491586565,-4.5598169752612705,-0.18258445406658574
1700006751974055200,0.98505517578125,-8.663031753784418,-4.593310079540312,-0.15415820472305639
1700006751984000300,0.995000244140625,-8.642852889108656,-4.6322047506019475,-0.11896399561455473
1700006751993946400,1.0049462890625,-8.619585995289683,-4.676216034024954,-0.0782716548806522
1700006752003891200,1.01489111328125,-8.593941266423464,-4.72369587034136,-0.03537948884780053
1700006752013836300,1.024836181640625,-8.565819333788752,-4.77463052328676,0.0055731713354558446
1700006752023781400,1.034781494140625,-8.5341177891016,-4.830885786733031,0.04200684826541692
1700006752033726200,1.044726318359375,-8.497647714838385,-4.894418639966845,0.070966122206836
1700006752043671300,1.05467138671875,-8.456357673072814,-4.965106041130423,0.09011888153813778
1700006752053617200,1.0646171875,-8.411126200205087,-5.041159353241324,0.10022816022080369
1700006752063562200,1.074562255859375,-8.364576630476117,-5.117959099805355,0.1036180492542684
1700006752073507300,1.08450732421875,-8.320621753415464,-5.18909950543344,0.10431284485170617
1700006752083452200,1.0944521484375,-8.282059090787172,-5.250398316004872,0.10582008021003567
1700006752093397500,1.1043974609375,-8.25106540210843,-5.2989007733672855,0.10934595278124325
1700006752103343400,1.11434326171875,-8.228183123692869,-5.334250903689861,0.11468584337132051
1700006752113288200,1.1242880859375,-8.212237366542219,-5.358650600931048,0.12000811610631644
1700006752123233300,1.1342333984375,-8.20016815856397,-5.377018032270669,0.12369914351082406
1700006752133178000,1.14417822265625,-8.186901849755644,-5.39710395796597,0.12763209904558023
1700006752143123200,1.154123291015625,-8.166645243668556,-5.4275499496340744,0.1341220455867704
1700006752153068300,1.164068359375,-8.134649099949002,-5.475106650578975,0.14517564678168854
1700006752163014100,1.17401416015625,-8.087420900306105,-5.54417784871757,0.16154844283852726
1700006752172959200,1.183959228515625,-8.023415168863535,-5.63580633110106,0.18133186018960548
1700006752182904300,1.193904296875,-7.942078363391756,-5.749256769192218,0.1995484483490698
1700006752192849200,1.20384912109375,-7.839500032448768,-5.8879550457865,0.21120881979810072
1700006752202794200,1.213794189453125,-7.709901592633128,-6.056841539895534,0.20609010681118814
1700006752212740000,1.223739990234375,-7.545338222420215,-6.261686067092418,0.1718812006792985
1700006752222685400,1.233685546875,-7.3360893227845425,-6.50702451724112,0.10397808733885176
1700006752232630300,1.24363037109375,-7.077914187416434,-6.787746999981999,0.000773901773192847
1700006752242575000,1.2535751953125,-6.773434396991133,-7.090208436322212,-0.14115926901348866
1700006752252520400,1.2635205078125,-6.428406907600164,-7.398982709071039,-0.31785240915231405
1700006752262466300,1.27346630859375,-6.047885495501756,-7.702565258395671,-0.5137613867541775
1700006752272411400,1.283411376953125,-5.635436328744888,-7.994726249995828,-0.7046847579631954
1700006752282356200,1.293356201171875,-5.194186014917492,-8.273018290719389,-0.8648677942000329
1700006752292301000,1.303301025390625,-4.728306579007208,-8.535250592523813,-0.9813271317835897
1700006752302246400,1.313246337890625,-4.24990989909023,-8.774450978308916,-1.0571994613043962
1700006752312191200,1.323191162109375,-3.778712775288522,-8.980678484296797,-1.1131563263259827
1700006752322137300,1.333137451171875,-3.3354017295390364,-9.14640037689507,-1.1784933794375507
1700006752332082200,1.343082275390625,-2.9336887685909865,-9.273100757181643,-1.254375938091427
1700006752342027300,1.35302734375,-2.5774799599722025,-9.368573055511712,-1.325448685310781
1700006752351972400,1.362972412109375,-2.260259930439293,-9.441523140910267,-1.385372262006253
1700006752361917200,1.372917236328125,-1.9708910537756978,-9.499262797695398,-1.4317748244799673
1700006752371862300,1.3828623046875,-1.7008815420985222,-9.546459433156251,-1.4637278597101568
1700006752381808400,1.392808349609375,-1.4462005324564873,-9.58519745235145,-1.48421345224753
1700006752391753200,1.402753173828125,-1.2054795860406011,-9.616154900673031,-1.4989298137336968
1700006752401698300,1.4126982421875,-0.9777624981045723,-9.63997358315587,-1.5117156455487013
1700006752411643400,1.422643310546875,-0.7622786496020854,-9.658221772029995,-1.5192266057007013
1700006752421588200,1.432588134765625,-0.5617708364352584,-9.672149175095557,-1.5179935567744076
1700006752431534300,1.442534423828125,-0.37946521757636215,-9.682861123245955,-1.50618811429888
1700006752441479200,1.452479248046875,-0.2154765237125568,-9.691251350450516,-1.4844545675270258
1700006752451424300,1.46242431640625,-0.06491134764594025,-9.697313426968455,-1.4588601075433194
1700006752461369300,1.472369384765625,0.08134189263884908,-9.7001957044065,-1.438748755145818
1700006752471314200,1.482314208984375,0.23311189618427305,-9.699434072384237,-1.4272417110949753
1700006752481259300,1.49225927734375,0.3958064037853852,-9.695694885855913,-1.4167700014412403
1700006752491205000,1.502205078125,0.57050640647877,-9.69053355756998,-1.3922854023955762
1700006752501150500,1.512150390625,0.7507868761856108,-9.686009358143806,-1.337146137367189
1700006752511095300,1.52209521484375,0.925190307085216,-9.682935357525944,-1.2470581624239683
1700006752521040100,1.5320400390625,1.091614502733946,-9.67913713428676,-1.1371223813902587
1700006752530985500,1.5419853515625,1.2916074982464312,-9.667681089770793,-1.018854679210484
1700006752540931300,1.551931396484375,1.5292115547508,-9.645725278550385,-0.8898678684871644
1700006752550876400,1.56187646484375,1.767025016222149,-9.617228082862496,-0.7462916105929762
1700006752560821200,1.5718212890625,1.9901117409437894,-9.58344505572617,-0.6061712287737057
1700006752570766300,1.581766357421875,2.200365141446888,-9.544439910027384,-0.48212264163754875
1700006752580711400,1.59171142578125,2.3823351351432502,-9.505548746097087,-0.37333270617071534
1700006752590656300,1.60165625,2.4780013486102224,-9.48405821430087,-0.2872384953050874
1700006752600602000,1.61160205078125,2.4433804093450306,-9.494797050458192,-0.22166651919279245
1700006752610547200,1.621547119140625,2.319487926086038,-9.527100068169831,-0.1571954900597222
1700006752620492300,1.6314921875,2.1819588394016027,-9.560370469608902,-0.09362225914974696
1700006752630437400,1.641437255859375,2.080967046997696,-9.583231120714546,-0.040581665167352184
1700006752640382200,1.65138232421875,2.0409061086356637,-9.591927052867412,-0.0065873425010591746
1700006752650328000,1.661328125,2.071742414795607,-9.58530968055427,0.008713616223318968
1700006752660273400,1.6712734375,2.17215772248581,-9.563049333429335,0.015635864650993606
1700006752670218200,1.68121826171875,2.3221719044730067,-9.527722583982348,0.020155885658971966
1700006752680163300,1.691163330078125,2.476440675164759,-9.488788749954104,0.02250310180566739
1700006752690108400,1.7011083984375,2.5840771662801503,-9.460053653857111,0.018502532386308303
1700006752700053200,1.71105322265625,2.6300427986413237,-9.447389402595162,0.007496427590682287
1700006752709999400,1.720999267578125,2.6496713359579442,-9.441904249182343,-0.007402030730430852
1700006752719944200,1.730944091796875,2.6746675377875566,-9.434839717623591,-0.019296921608923
1700006752729889300,1.74088916015625,2.7193545285150407,-9.422022321626544,-0.03133403796545463
1700006752739834400,1.75083447265625,2.779589801508188,-9.404364499861002,-0.046619652990228494
1700006752749779200,1.760779296875,2.844934088078141,-9.384713458451628,-0.06251091260781977
1700006752759725300,1.770725341796875,2.908599627780914,-9.365051895648241,-0.07890446375831961
1700006752769670100,1.780670166015625,2.9628453049704433,-9.347893840098381,-0.09410782331014052
1700006752779615200,1.790615234375,3.00368497262001,-9.33469065965414,-0.10883042274084873
1700006752789560300,1.800560302734375,3.0342738798901436,-9.32456264887154,-0.12702986796926707
1700006752799505200,1.810505126953125,3.066142597837746,-9.313756008175014,-0.15198190186358987
1700006752809450200,1.8204501953125,3.1094433949038383,-9.298885186779499,-0.18017505483729765
1700006752819396400,1.830396240234375,3.160517748580873,-9.281079480975865,-0.2075138377376832
1700006752829341200,1.840341064453125,3.2096368765369054,-9.263602860996127,-0.23296622236957773
1700006752839286300,1.850286376953125,3.240613321819901,-9.252395822805166,-0.24893828300526363
1700006752849231400,1.8602314453125,3.2543285434395073,-9.247150323367118,-0.2644705457178876
1700006752859176200,1.87017626953125,3.2642201151177286,-9.242697435611486,-0.2962265057397075
1700006752869122300,1.880122314453125,3.2701322617709634,-9.23892259324789,-0.34492501539718357
1700006752879067100,1.890067138671875,3.2680878964617848,-9.237289439088105,-0.4030741662986576
1700006752889012200,1.90001220703125,3.2567508021503686,-9.238505244618654,-0.46257341663483525
1700006752898957300,1.909957275390625,3.2331419630259273,-9.243681185951829,-0.5211077674616128
1700006752908902100,1.919902099609375,3.186796975958347,-9.256706671741604,-0.5728049292121082
1700006752918847200,1.92984716796875,3.1177514967828985,-9.27819778805971,-0.6042075640179216
1700006752928793000,1.93979296875,3.0433921291083097,-9.30291020451188,-0.6033464171439409
1700006752938738400,1.949738525390625,2.9645179143577813,-9.32956206459403,-0.5842453743001446
1700006752948683300,1.959683349609375,2.878643465456366,-9.357048621934652,-0.5739614788360894
1700006752958628000,1.969628173828125,2.7903867975935337,-9.383599359729885,-0.5763948434628546
1700006752968572700,1.97957275390625,2.708551687210798,-9.406897233209014,-0.5868629729200154
1700006752978517500,1.989517578125,2.6333570377558466,-9.427592230713367,-0.5969538665626197
1700006752988463600,1.999463623046875,2.5649261833474037,-9.446076566430925,-0.6026496305188164
1700006752998408400,2.009408447265625,2.506597620758414,-9.4616979139328,-0.6030315425084903
1700006753008353800,2.019353759765625,2.4581343263626096,-9.474700603368877,-0.5983521890532225
1700006753018298600,2.029298583984375,2.413680413738638,-9.486680379498004,-0.5894221193509176
1700006753028243500,2.039243408203125,2.3695872972510754,-9.498749002954364,-0.5737624491326511
1700006753038189600,2.049189453125,2.323358776170015,-9.511524313375354,-0.5507141299678012
1700006753048134700,2.059134765625,2.2750769758209586,-9.524969485881924,-0.5190066304638982
1700006753058079500,2.06907958984375,2.2270742846742273,-9.538429271435737,-0.4784222162170335
1700006753068024600,2.079024658203125,2.179168624161184,-9.551690319547056,-0.4322311410695314
1700006753077969700,2.0889697265625,2.1312401672944423,-9.56458896408677,-0.38321258741114284
1700006753087914800,2.098914794921875,2.083051305925846,-9.577108253920077,-0.3321246801327914
1700006753097860600,2.108860595703125,2.0335624678745865,-9.589411270654201,-0.2796946375304833
1700006753107805400,2.118805419921875,1.9826504651524126,-9.601320319634675,-0.23270088596427813
1700006753117750500,2.12875048828125,1.9295459208220243,-9.613035307347774,-0.19181308659035712
1700006753127695600,2.138695556640625,1.87145905803442,-9.62520505309105,-0.15315260787708684
1700006753137640700,2.148640625,1.8077223527915776,-9.637932432717085,-0.11322939748531206
1700006753147585500,2.15858544921875,1.742498185469955,-9.650341247913241,-0.07083541763240937
1700006753157531400,2.168531494140625,1.6756401333361863,-9.662396427366136,-0.027296249799756332
1700006753167476700,2.178476806640625,1.606709074320644,-9.674126028126478,0.013076629171834792
1700006753177421600,2.188421630859375,1.5347940310582517,-9.68568261040747,0.048352655361872166
1700006753187366400,2.198366455078125,1.4617390239804982,-9.696768068045378,0.07988710898696444
1700006753197311700,2.208311767578125,1.388675833596289,-9.7072462074399,0.10651179793439805
1700006753207257600,2.218257568359375,1.3165240589685738,-9.717046301442384,0.12711761018480172
1700006753217202700,2.22820263671875,1.249998453659564,-9.725565707984567,0.14584596552499568
1700006753227147500,2.2381474609375,1.1956368219401687,-9.732081373488903,0.16563898182148112
1700006753237092600,2.248092529296875,1.1549739721622316,-9.73657985395193,0.18822340980162844
1700006753247037700,2.25803759765625,1.1262455250017345,-9.739438750514388,0.2128564408746548
1700006753256983600,2.267983642578125,1.1083557941764592,-9.740912330198288,0.23787624277556313
1700006753266928600,2.2779287109375,1.1020582284022122,-9.74103800240457,0.2607826692516915
1700006753276873500,2.28787353515625,1.1060879953749476,-9.740090492421388,0.27856157837994394
1700006753286818600,2.297818603515625,1.1209252067618072,-9.737987382662295,0.2924553349042311
1700006753296763600,2.307763671875,1.1466537414539604,-9.734577866479754,0.30587447792040184
1700006753306708500,2.31770849609375,1.1785968398120255,-9.730273447284102,0.32105387207474556
1700006753316654600,2.327654541015625,1.2041453417621553,-9.726537767887114,0.33894692736826837
1700006753326599700,2.337599609375,1.2149658648535608,-9.724524674499035,0.35755784860756246
1700006753336544500,2.34754443359375,1.2285131825603544,-9.721784435880183,0.3847572595698759
1700006753346489600,2.357489501953125,1.256352498861402,-9.716602649328111,0.42376967525966464
1700006753356434700,2.3674345703125,1.2601098055683075,-9.713981653174757,0.47016069342605765
1700006753366379500,2.377379638671875,1.2581870208121835,-9.71110229834616,0.5308977419288828
1700006753376325600,2.38732568359375,1.25156833332479,-9.708235218477249,0.5950879630928859
1700006753386270500,2.3972705078125,1.2406510718606412,-9.705868489345908,0.6536772589772939
1700006753396215600,2.407215576171875,1.2301891529485582,-9.703591192063689,0.7052084895763546
1700006753406160600,2.41716064453125,1.2252685746159404,-9.700766197770834,0.7511670346096158
1700006753416105500,2.42710546875,1.2335793799087404,-9.696627782791852,0.7899881289783864
1700006753426051600,2.437051513671875,1.2429020656578242,-9.69269511951804,0.822947272511199
1700006753435996400,2.446996337890625,1.2461796260237694,-9.689734516146778,0.8523352064937353
1700006753445941800,2.456941650390625,1.2466850913278757,-9.687243283852935,0.8794676166344434
1700006753455886600,2.466886474609375,1.2429343604922294,-9.685582657164336,0.9027582566551864
1700006753465831400,2.47683154296875,1.2325702028661965,-9.685006318581104,0.9229312761120497
1700006753475776800,2.48677685546875,1.2166887431234121,-9.685427758863568,0.9394455538656562
1700006753485722600,2.49672265625,1.2003773675307632,-9.68676514494717,0.9466040473181754
1700006753495667700,2.506667724609375,1.1843735235173254,-9.688749596762657,0.9464433037985116
1700006753505612500,2.516612548828125,1.1727142845794558,-9.690788409113884,0.9400713576138019
1700006753515557600,2.5265576171875,1.1628985546164214,-9.693309452024101,0.9261724499903619
1700006753525502700,2.536502685546875,1.1524473032288252,-9.696198159202932,0.9088388186778873
1700006753535447600,2.546447509765625,1.137421948858723,-9.699632809826731,0.8909540562886744
1700006753545393700,2.5563935546875,1.1150568261850624,-9.703746090364456,0.8742858300823718
1700006753555338500,2.56633837890625,1.085653548502922,-9.708608727964759,0.8571404878836124
1700006753565283600,2.57628369140625,1.0510864583168178,-9.714095050421356,0.8378350450415164
1700006753575228700,2.586228759765625,1.014546752883494,-9.719743869963288,0.8171179818358272
1700006753585173500,2.596173583984375,0.9843696412846445,-9.724594817125796,0.7960328159701079
1700006753595119600,2.60611962890625,0.9535820696372538,-9.729691263481975,0.7708307163048536
1700006753605064700,2.616064697265625,0.9239106425382196,-9.734650931715965,0.7438689865559339
1700006753615009500,2.626009521484375,0.895468026581779,-9.73935691744983,0.7165412730388343
1700006753624954600,2.63595458984375,0.8671566357895731,-9.743901575142145,0.6890675021145493
1700006753634899700,2.645899658203125,0.8392924042429775,-9.748287242880464,0.6609711423125118
1700006753644844500,2.655844482421875,0.8115781025610864,-9.752497554051876,0.6328451910898089
1700006753654790700,2.665790771484375,0.7837413435433059,-9.756547121703624,0.6048906509112566
1700006753664735500,2.675735595703125,0.7550964099477976,-9.760479784977436,0.5772881755733862
1700006753674680800,2.685680908203125,0.727660925207287,-9.764192083498836,0.5490569373453036
1700006753684625700,2.695625732421875,0.702481475765258,-9.767627318644523,0.519961739231646
1700006753694570500,2.705570556640625,0.6787052441846579,-9.770755095276236,0.4920500883467495
1700006753704515600,2.715515625,0.6549641569826752,-9.77363854175806,0.4662952136369422
1700006753714461400,2.72546142578125,0.6310935981821268,-9.776321497231722,0.4423191486353054
1700006753724406500,2.735406494140625,0.6080853187667206,-9.778775320124625,0.4197094766160473
1700006753734351600,2.7453515625,0.5877374541996047,-9.780902395281196,0.3986072134850546
1700006753744296400,2.75529638671875,0.5721676907544955,-9.782667066866159,0.37741332654785364
1700006753754241800,2.76524169921875,0.5622394403276965,-9.784059398007392,0.35559553555864837
1700006753764187600,2.775187744140625,0.5570008090218529,-9.785124981412292,0.33388394489027556
1700006753774132500,2.785132568359375,0.5535943250466138,-9.786001764246821,0.3131737498167902
1700006753784077600,2.79507763671875,0.5466409257121384,-9.787031691816448,0.2925637089158408
1700006753794022700,2.805022705078125,0.5330081216789782,-9.788418177738786,0.27052272189632054
1700006753803967700,2.8149677734375,0.5135561830382794,-9.790074128252268,0.24721211679978294
1700006753813912600,2.82491259765625,0.4913652478877455,-9.791770995298027,0.22398734508948398
1700006753823858400,2.8348583984375,0.4670776327189058,-9.793421685114502,0.20286000231616197
1700006753833803800,2.8448037109375,0.4374563649045303,-9.795131411641835,0.185563323746901
1700006753843748600,2.85474853515625,0.3996035675786435,-9.796975578203797,0.17316835441300643
1700006753853693400,2.864693359375,0.35259668253622944,-9.798905084961651,0.16591860248045995
1700006753863638500,2.874638427734375,0.2971341951691545,-9.800794844231008,0.16278958373973146
1700006753873584400,2.88458447265625,0.2417392931455746,-9.80235902480781,0.16038073249971493
1700006753883529700,2.89452978515625,0.19274843121170995,-9.803501765102148,0.15685652216263116
1700006753893474600,2.904474609375,0.15332906042253597,-9.804313081485033,0.14938049632669426
1700006753903419400,2.91441943359375,0.12352786946399137,-9.804929167556763,0.13598218603599815
1700006753913364700,2.92436474609375,0.10476260704635641,-9.805426595684885,0.11417999447472393
1700006753923309600,2.9343095703125,0.10128208058737218,-9.805820563438534,0.07765179681610315
1700006753933255700,2.944255615234375,0.11152726974254473,-9.805987736698984,0.0239192910298123
1700006753943200500,2.954200439453125,0.1275854377591051,-9.80571593402028,-0.04531261181253939
1700006753953145600,2.9641455078125,0.1380611386013683,-9.804963654348253,-0.1184330396761652
1700006753963090700,2.974090576171875,0.14583326130704954,-9.804030172890425,-0.17350529474979265
1700006753973035800,2.984035888671875,0.15792849877569823,-9.803170341190695,-0.20804310404248536
1700006753982980600,2.993980712890625,0.17347964885188266,-9.802318108275532,-0.23414589714081957
1700006753992926700,3.0039267578125,0.19044477564552797,-9.801354231679438,-0.25998065042011437
1700006754002871800,3.013871826171875,0.2081983128705062,-9.800242471045255,-0.28687623786395416
1700006754012816600,3.023816650390625,0.22723317687660455,-9.798924374184011,-0.31594533342197534
1700006754022761700,3.03376171875,0.2506904787011444,-9.797195358434319,-0.34997846286185086
1700006754032706800,3.043706787109375,0.2825546848704107,-9.794817523387074,-0.3899704641735181
1700006754042653000,3.05365283203125,0.3204786660026759,-9.791982592222094,-0.4298040600530803
1700006754052597800,3.06359765625,0.3648637877067551,-9.788769475394487,-0.46609472262877966
1700006754062542600,3.07354248046875,0.4160340029736981,-9.78512673497796,-0.498596295119822
1700006754072488000,3.083488037109375,0.47061563411932433,-9.781144971865414,-0.5273848749697209
1700006754082432800,3.093432861328125,0.5246618797466158,-9.776998373579978,-0.55266285288278
1700006754092377600,3.103377685546875,0.5766321958826854,-9.772801506412028,-0.5746646586693823
1700006754102323700,3.11332373046875,0.6240943869445472,-9.768688810396194,-0.5946466125335544
1700006754112268800,3.123268798828125,0.665290539881587,-9.76485200871229,-0.6127443600863218
1700006754122214000,3.1332138671875,0.6993108829051256,-9.761474056711792,-0.62848363487944
1700006754132158700,3.14315869140625,0.7256424249917268,-9.758653738594054,-0.642287192369625
1700006754142103600,3.153103515625,0.7451203748565167,-9.756341954520344,-0.6549607229165733
1700006754152049000,3.163048828125,0.7586876393727958,-9.75454045805633,-0.666142407470569
1700006754161994800,3.172994873046875,0.7673788222853094,-9.753224699282645,-0.6753752229791135
1700006754171939800,3.18293994140625,0.7718366784770041,-9.752309338003396,-0.6834568226259201
1700006754181884700,3.192884765625,0.7726000640649348,-9.751765732645987,-0.6903269275911152
1700006754191829800,3.202829833984375,0.7699421699672937,-9.751621355739235,-0.6953113649401813
1700006754201774800,3.21277490234375,0.7627820690795779,-9.751934659472107,-0.6988021296653896
1700006754211720700,3.222720703125,0.7498672771226614,-9.75282430178821,-0.7003755164619535
1700006754221665800,3.232665771484375,0.732890350293368,-9.754268655377626,-0.6982079631645232
1700006754231611000,3.24261083984375,0.7132309063818305,-9.756168351519108,-0.6919933264333754
1700006754241555700,3.2525556640625,0.6925388314869254,-9.758307117113471,-0.6827954361077397
1700006754251500800,3.262500732421875,0.672441361484304,-9.760485630196332,-0.6716729343950748
1700006754261446000,3.27244580078125,0.6548624501738697,-9.762584063780308,-0.6584023878030478
1700006754271391700,3.282391845703125,0.6416829428661615,-9.764467393308877,-0.6432796374730766
1700006754281336800,3.2923369140625,0.6338672276139259,-9.766063138067722,-0.6265801393456757
1700006754291281700,3.30228173828125,0.6305389599740505,-9.767435010942815,-0.6082760190332308
1700006754301226800,3.312226806640625,0.6295494374800473,-9.76873206501603,-0.5881405551077797
1700006754311171800,3.322171875,0.6282156315930187,-9.770100430759786,-0.566432435038127
1700006754321116700,3.33211669921875,0.6249394594665616,-9.771600898450613,-0.5437120691860095
1700006754331062800,3.342062744140625,0.6194588360983878,-9.77326444774866,-0.5195473497444764
1700006754341007600,3.352007568359375,0.6111684890717267,-9.775088156044482,-0.49449430316109205
1700006754350953000,3.361952880859375,0.6002797595823184,-9.77710651012957,-0.46715175740104165
1700006754360897800,3.371897705078125,0.584914432668127,-9.779404850199818,-0.437577908924967
1700006754370842600,3.381842529296875,0.563760366284661,-9.781982007211447,-0.40669535247050226
1700006754380788700,3.391788818359375,0.5361804315721616,-9.784816938376427,-0.3744793554551899
1700006754390733800,3.40173388671875,0.5018885781308636,-9.78786872716248,-0.34073914454728366
1700006754400679000,3.411678955078125,0.46156277828756714,-9.791017546582221,-0.305472509523388
1700006754410623700,3.421623779296875,0.417203667807579,-9.794098561462759,-0.26820533006573094
1700006754420568800,3.43156884765625,0.36832627618554975,-9.797053904137014,-0.2291172005249187
1700006754430514000,3.441513916015625,0.3163926753306761,-9.79972926082611,-0.18870764965461567
1700006754440459800,3.451459716796875,0.26443317284956575,-9.801965057054161,-0.14822297858833333
1700006754450404900,3.46140478515625,0.21401841559242457,-9.803725052464008,-0.10765283032883889
1700006754460349700,3.471349609375,0.168305808144249,-9.804966576957701,-0.0683190280644223
1700006754470294800,3.481294677734375,0.12907518312651664,-9.805749836289882,-0.03195077249115565
1700006754480239900,3.491239990234375,0.09549321325393394,-9.806185889619588,0.0022162959441986456
1700006754490185700,3.501185791015625,0.06569588105317671,-9.80636767592728,0.03495681102289818
1700006754500130600,3.511130615234375,0.04091171453904826,-9.80634897122681,0.06505043645622208
1700006754510076000,3.521075927734375,0.024572311578446533,-9.806188812229037,0.09183914772579446
1700006754520020700,3.531020751953125,0.01720296212902176,-9.80595909512639,0.11507051357366144
1700006754529965800,3.5409658203125,0.017845479549950687,-9.80571885662973,0.13400799988619982
1700006754539911000,3.550910888671875,0.025220235826855057,-9.805479787176846,0.14932639151928015
1700006754549856800,3.560856689453125,0.03885067208970431,-9.805252992683648,0.16087136556087062
1700006754559801900,3.5708017578125,0.05724450281248428,-9.805038473150134,0.1682700061785057
1700006754569746700,3.58074658203125,0.07983013636902905,-9.80482220005095,0.17164311760710552
1700006754579691800,3.59069189453125,0.1076902305966243,-9.804483177354932,0.175744269315619
1700006754589636900,3.600636962890625,0.13663543491349556,-9.804022574105858,0.18128668760731814
1700006754599581700,3.610581787109375,0.16379669668935237,-9.803469616398214,0.18848127528652547
1700006754609527800,3.62052783203125,0.1895140341340564,-9.802821381622552,0.19790796939935534
1700006754619472600,3.63047265625,0.21436892779683692,-9.80207670073509,0.20909951776023952
1700006754629417700,3.640417724609375,0.2363239352996461,-9.801320913931727,0.22055910594016312
1700006754639362800,3.65036279296875,0.25462633857904,-9.800592599657177,0.23226601994466034
1700006754649307600,3.6603076171875,0.27179120746217666,-9.799796480843424,0.2459976812424138
1700006754659253000,3.6702529296875,0.2862552381550893,-9.798896901655196,0.26472561645749954
1700006754669198800,3.68019873046875,0.2955459213307127,-9.797931856015325,0.28910569568276406
1700006754679143700,3.690143798828125,0.2997953041371889,-9.796866272610425,0.31927564688846466
1700006754689088800,3.7000888671875,0.30173396231587973,-9.795583831584453,0.35479726132042705
1700006754699033900,3.710033935546875,0.30396131950914856,-9.793990424913167,0.39462479278538376
1700006754708978700,3.719978759765625,0.3064669091219082,-9.79208196094334,0.4377100839372724
1700006754718924800,3.7299248046875,0.30708964413013307,-9.789988788056373,0.481871114561893
1700006754728869600,3.73986962890625,0.30208242869367824,-9.787931271004677,0.5249171331493183
1700006754738814700,3.749814697265625,0.28906602125950154,-9.786012285640835,0.5663733983272686
1700006754748759800,3.759759765625,0.2663904809297994,-9.784261642581225,0.6063219988886267
1700006754758704600,3.76970458984375,0.23452895990796385,-9.7827383785367,0.6429448525607585
1700006754768649700,3.779649658203125,0.19637206506896762,-9.781317405822872,0.6765005006819963
1700006754778595600,3.789595703125,0.1553714529703371,-9.779897017630935,0.7070075748875737
1700006754788541000,3.799541015625,0.114364739924483,-9.778387782111764,0.7351452896133065
1700006754798485800,3.80948583984375,0.07650425248248502,-9.776569919034838,0.7636908544875681
1700006754808430600,3.8194306640625,0.044852734649251214,-9.774414202305675,0.7932226539202034
1700006754818376000,3.8293759765625,0.02099722728736233,-9.772101833710074,0.8221725618116558
1700006754828320800,3.83932080078125,0.0036211593432031804,-9.769859607741235,0.8486570294376462
1700006754838267000,3.849266845703125,-0.009472105869601363,-9.767972771081327,0.8700573256671428
1700006754848211700,3.859211669921875,-0.0200883254316519,-9.766552382889389,0.8856807189956307
1700006754858156800,3.86915673828125,-0.029158534257009157,-9.765565125417709,0.8962414951723069
1700006754868102000,3.879101806640625,-0.037302079524390866,-9.764931503689288,0.9028293491300194
1700006754878046700,3.889046630859375,-0.044424558665324,-9.764676652145384,0.9052769614778459
1700006754887992800,3.898992919921875,-0.050449527176422995,-9.764814014789462,0.9034768532533198
1700006754897937700,3.908937744140625,-0.05583307424513623,-9.765236624115705,0.8985714724898338
1700006754907882800,3.9188828125,-0.06017119934756774,-9.765925775423645,0.8907666439577937
1700006754917827800,3.928827880859375,-0.06416193121785763,-9.76688556036651,0.8798929293744265
1700006754927772700,3.938772705078125,-0.06876069371758495,-9.768112471812962,0.865807413137704
1700006754937717800,3.9487177734375,-0.07405873619362245,-9.769761992585659,0.8465429598931222
1700006754947662800,3.958662841796875,-0.07883136198949069,-9.77201707803607,0.819671100384742
1700006754957608700,3.968608642578125,-0.08176406357367523,-9.774819275975227,0.7852465604744852
1700006754967553800,3.9785537109375,-0.08300865680729039,-9.777747146120667,0.7477695011258125
1700006754977499400,3.98849951171875,-0.08543497977191582,-9.780275787815452,0.7136509584248065
1700006754987444500,3.998444580078125,-0.09014405251201242,-9.782226337361335,0.6857699949391186
1700006754997389600,4.0083896484375,-0.09596477628843858,-9.78378467271924,0.6623587972786277
1700006755007334400,4.01833447265625,-0.09986460587172769,-9.785099846971034,0.6420416931759566
1700006755017280500,4.028280517578125,-0.1037471463934984,-9.786361245208978,0.6218921276599169
1700006755027225600,4.0382255859375,-0.11019735457934439,-9.787639594581723,0.6003131869278848
1700006755037170400,4.04817041015625,-0.11969416391947306,-9.788961783096193,0.5764328739183023
1700006755047115500,4.058115478515625,-0.13245595727176404,-9.790265266910195,0.5509646706627681
1700006755057060600,4.068060546875,-0.14952022445779292,-9.791433141645788,0.5252502375612035
1700006755067006500,4.07800634765625,-0.1734741872254759,-9.792335058921575,0.5004610295457765
1700006755076951600,4.08795166015625,-0.20596136586498467,-9.792884509497881,0.4768192745324224
1700006755086896400,4.097896484375,-0.24503093683579935,-9.79305518988967,0.4543118207786232
1700006755096841500,4.107841552734375,-0.2864199271975085,-9.792893861848116,0.4330944799005985
1700006755106786600,4.11778662109375,-0.32878373567443336,-9.792432089555263,0.4129835658945143
1700006755116731400,4.1277314453125,-0.3688454412214458,-9.791810742786526,0.393403215101175
1700006755126677500,4.137677490234375,-0.40160610304009164,-9.791292856392264,0.37372824482694267
1700006755136622300,4.147622314453125,-0.423391343466565,-9.791126267653704,0.35353213675543665
1700006755146567700,4.157567626953125,-0.43332722921054806,-9.791457691565155,0.3316413901278749
1700006755156512500,4.167512451171875,-0.43281938928626473,-9.792296480476855,0.3065483768602833
1700006755166457300,4.177457275390625,-0.42439029137603934,-9.793549695408343,0.2769136285098269
1700006755176402700,4.187402587890625,-0.41160888000782575,-9.794987034735083,0.243321173775848
1700006755186348500,4.1973486328125,-0.39708760270234195,-9.796397486054897,0.20807762736659496
1700006755196293600,4.207293701171875,-0.376779924015142,-9.797876910957694,0.17326072713788598
1700006755206238500,4.217238525390625,-0.3472765104267746,-9.79950772702992,0.13946667628404683
1700006755216183300,4.227183349609375,-0.3059193947743624,-9.801292856881021,0.10712139033325947
1700006755226128600,4.237128662109375,-0.25553218311127274,-9.803042330896854,0.07388058488143141
1700006755236073500,4.247073486328125,-0.20543703146362677,-9.804434077516198,0.035685696119605564
1700006755246019300,4.257019287109375,-0.16625351525694132,-9.805238379636407,-0.006143189775754581
1700006755255964400,4.26696435546875,-0.13701941099609247,-9.805576817810534,-0.04783669606321491
1700006755265909500,4.276909423828125,-0.11046978744571097,-9.805648129481076,-0.08623405772773549
1700006755275854600,4.2868544921875,-0.08298328490401617,-9.805559866675734,-0.12045000552176498
1700006755285799400,4.29679931640625,-0.051622224217606705,-9.805354699492455,-0.15079659193600528
1700006755295745300,4.306745361328125,-0.015629915542464005,-9.805048410022259,-0.17653755685146896
1700006755305690600,4.316690673828125,0.024304157594975548,-9.804625216174125,-0.19784381812196225
1700006755315635500,4.326635498046875,0.06809485478657297,-9.804022574105858,-0.21651059773433953
1700006755325580300,4.336580322265625,0.11349690758138894,-9.80321651841998,-0.23334181421631947
1700006755335525600,4.346525634765625,0.15739388044234365,-9.802213478857277,-0.2493912326708436
1700006755345470500,4.356470458984375,0.19760836539827287,-9.801077752825616,-0.264985710432101
1700006755355416600,4.36641650390625,0.23265858119251207,-9.7999168923527,-0.27914131449665874
1700006755365361400,4.376361328125,0.26066362771559504,-9.798874105301499,-0.29069117477592077
1700006755375306200,4.38630615234375,0.28094741407055407,-9.7980522675246,-0.299407875722181
1700006755385251600,4.39625146484375,0.29457515833610665,-9.797458393284678,-0.30564099795809013
1700006755395196400,4.406196533203125,0.30251541328346354,-9.797066763618588,-0.31043533782884475
1700006755405141500,4.4161416015625,0.30611689010784027,-9.796759305104613,-0.31650837413221594
1700006755415087400,4.42608740234375,0.3063077182385139,-9.796457691809534,-0.3255173542896285
1700006755425032400,4.436032470703125,0.304947462735977,-9.796102887022494,-0.33723468009028584
1700006755434977500,4.4459775390625,0.30252938700988885,-9.795725285881757,-0.35021698432546106
1700006755444922400,4.45592236328125,0.2982164557142183,-9.795390354838966,-0.3630230186782777
1700006755454867500,4.465867431640625,0.291323042938672,-9.795152454429864,-0.3748267806533724
1700006755464813600,4.4758134765625,0.28115154007421805,-9.795052501186728,-0.3850654852688312
1700006755474758400,4.48575830078125,0.2678029050109908,-9.795105692678689,-0.39313221614006905
1700006755484703500,4.495703369140625,0.2530169306210242,-9.795268189764021,-0.39885030152592804
1700006755494648600,4.505648681640625,0.23576144257867707,-9.795496737822889,-0.4038041976062581
1700006755504593400,4.515593505859375,0.2177398838009685,-9.795808287990093,-0.4063430319014936
1700006755514538500,4.52553857421875,0.2034741704254411,-9.79607366092801,-0.40735282999854533
1700006755524484400,4.535484375,0.19285506992395965,-9.796250771060585,-0.4082699448434636
1700006755534429400,4.545429443359375,0.18463890237836167,-9.796389302748441,-0.40872492206934835
1700006755544374500,4.55537451171875,0.17792197868088258,-9.796495101210475,-0.4091667475527152
1700006755554319400,4.5653193359375,0.17223708317857234,-9.796565828359126,-0.4098874995753169
1700006755564264400,4.575264404296875,0.16655976819451898,-9.796600315150618,-0.41142599772159005
1700006755574209500,4.58520947265625,0.15920978902420027,-9.79661317463219,-0.4140078674409538
1700006755584155600,4.59515576171875,0.1476068925166037,-9.796637140029668,-0.41773138147611166
1700006755594100500,4.6051005859375,0.13011052665677852,-9.796738262316584,-0.4211538302054629
1700006755604045300,4.61504541015625,0.10795940292682497,-9.796941091412306,-0.4226927302105352
1700006755613990700,4.62499072265625,0.0802200764015317,-9.797142166942358,-0.42422731936667113
1700006755623935500,4.634935546875,0.04671840065696742,-9.797301741418242,-0.42551429043728856
1700006755633880300,4.64488037109375,0.007133081020871759,-9.797368376913667,-0.42651670894548294
1700006755643826400,4.654826416015625,-0.03785631815695669,-9.797235690444706,-0.4279176617845893
1700006755653771500,4.664771484375,-0.0865800124880392,-9.796862765479087,-0.4293959541762247
1700006755663716600,4.674716552734375,-0.13791806773571297,-9.79622271400988,-0.4305515539521351
1700006755673661400,4.684661376953125,-0.19155836291061712,-9.79538334057629,-0.42914468282889573
1700006755683606300,4.694606201171875,-0.24844986016750334,-9.794407189020514,-0.42223073872197414
1700006755693552400,4.704552490234375,-0.307568586753495,-9.793324069958924,-0.4081349568195641
1700006755703497500,4.71449755859375,-0.36722635211963206,-9.792121123909949,-0.38716771824508905
1700006755713442600,4.724442626953125,-0.4247014762170613,-9.790773216432333,-0.36162747266665096
1700006755723387400,4.734387451171875,-0.47371425772178916,-9.78946973261833,-0.3350784884370863
1700006755733332500,4.74433251953125,-0.5091814020201564,-9.788528067854045,-0.30961832235753534
1700006755743277600,4.754277587890625,-0.5289754686294124,-9.78820307368338,-0.2857608422342688
1700006755753223400,4.764223388671875,-0.533518555419147,-9.788590027174353,-0.2631666783113964
1700006755763168500,4.77416845703125,-0.5244392134392634,-9.789654441535472,-0.24088912432333454
1700006755773113600,4.784113525390625,-0.5025342921558767,-9.791327343183756,-0.21856431539375334
1700006755783058400,4.794058349609375,-0.468896153382957,-9.793449742165206,-0.1971074484051205
1700006755793003500,4.80400341796875,-0.42277807040642945,-9.795983060035109,-0.17414543755054473
1700006755802948400,4.8139482421875,-0.3678742946343496,-9.798615162104367,-0.14896355868941172
1700006755812894500,4.82389453125,-0.3113171256320551,-9.800972538885473,-0.12000913901962339
1700006755822839600,4.833839599609375,-0.25829151002308354,-9.802868143373727,-0.08613466160702518
1700006755832784400,4.843784423828125,-0.21258332302169872,-9.804233001986145,-0.046918955597211605
1700006755842729500,4.8537294921875,-0.17530600576251745,-9.80508289681375,-0.0028028489618285675
1700006755852674600,4.863674560546875,-0.14383637013509867,-9.805487970483302,0.04613387876728084
1700006755862620700,4.87362060546875,-0.116946527445456,-9.805448222994803,0.09958146894825622
1700006755872565500,4.8835654296875,-0.094836484644562,-9.80495079486668,0.1560183543054387
1700006755882510300,4.89351025390625,-0.07732398963384329,-9.804022574105858,0.21338837406057864
1700006755892455700,4.90345556640625,-0.06338858592491596,-9.802703892722725,0.27086881365394216
1700006755902400500,4.913400390625,-0.05288874158866238,-9.800983060279489,0.3291036518111825
1700006755912345300,4.923345458984375,-0.045715726420446294,-9.798867675560713,0.38791974218878894
1700006755922291500,4.93329150390625,-0.04094968106241431,-9.796395147967338,0.4465051290830597
1700006755932236500,4.943236572265625,-0.03870936392287258,-9.7936484796077,0.5033210586193949
1700006755942181600,4.953181640625,-0.040060015913425014,-9.790811210355162,0.5556836620086804
1700006755952126500,4.96312646484375,-0.04590002891221084,-9.788045837295055,0.6020370515784248
1700006755962071300,4.9730712890625,-0.05552774832274299,-9.78542717922926,0.6424444287579506
1700006755972017000,4.983016845703125,-0.06659284359263255,-9.782966926595568,0.6778743463184684
1700006755981962800,4.992962646484375,-0.07735278647006488,-9.78070482688248,0.7086855911023915
1700006755991907800,5.002907958984375,-0.08696607092986815,-9.77869348706007,0.734850179124251
1700006756001852700,5.012852783203125,-0.09523814251432194,-9.7769574570477,0.756566701696068
1700006756011797800,5.0227978515625,-0.1013202115075197,-9.77552070224285,0.7741609567061066
1700006756021742800,5.032742919921875,-0.10522637036689557,-9.774316587150096,0.7887163554769009
1700006756031687700,5.042687744140625,-0.10870474140141159,-9.773310040456057,0.8006256967183202
1700006756041633500,5.052633544921875,-0.11165518870484083,-9.772542563214898,0.809538413427025
1700006756051579000,5.062578857421875,-0.11319198808437213,-9.772095403969287,0.8147005454305559
1700006756061523700,5.072523681640625,-0.11262310215523466,-9.772061501699685,0.8151761270530521
1700006756071468800,5.08246875,-0.11019245007536374,-9.772467159891129,0.8106247473590076
1700006756081413600,5.09241357421875,-0.10709486765251494,-9.773293673843146,0.8010303319964558
1700006756091358700,5.102358642578125,-0.10335503267021849,-9.774525261464714,0.7863624127618968
1700006756101304800,5.112304931640625,-0.09831272765407338,-9.776111069351433,0.7670401649154722
1700006756111249700,5.122249755859375,-0.09075928920037113,-9.778037068977952,0.7430540899764746
1700006756121194800,5.13219482421875,-0.08109723369539715,-9.780260005724429,0.714370943262428
1700006756131139800,5.142139892578125,-0.07122092808496672,-9.782585233801603,0.6828948778942227
1700006756141084700,5.152084716796875,-0.0632887879454065,-9.784890588134527,0.6498330777045339
1700006756151030800,5.16203076171875,-0.059258262920845295,-9.787025262075662,0.6172703861434012
1700006756160975600,5.1719755859375,-0.06044118909509852,-9.78883727993369,0.5877051593651995
1700006756170920700,5.181920654296875,-0.06648390789201948,-9.790353529715537,0.5611991374945268
1700006756180865800,5.19186572265625,-0.07690990154077298,-9.791575180464982,0.5380608019586652
1700006756190810600,5.201810546875,-0.08981445523146539,-9.792592248553037,0.517125712088123
1700006756200755700,5.211755615234375,-0.10189454079675488,-9.793561385846138,0.4961437143359333
1700006756210701800,5.221701904296875,-0.11189760089227929,-9.794514741048216,0.4747103926196694
1700006756220646700,5.231646728515625,-0.1200225556236226,-9.795499660432338,0.45184817061144855
1700006756230591700,5.241591796875,-0.1280476941091474,-9.796405669361352,0.4294536026475951
1700006756240536600,5.25153662109375,-0.13672759757582098,-9.79721289409101,0.40779326724242415
1700006756250481700,5.261481689453125,-0.14325052393800577,-9.798020703342557,0.3855628037991002
1700006756260426800,5.2714267578125,-0.14628742568218148,-9.798841372075676,0.3629178412707522
1700006756270372600,5.28137255859375,-0.1454199312658049,-9.799666132462024,0.3402678737737238
1700006756280317700,5.291317626953125,-0.14199512618258595,-9.800451729881763,0.3183872832139954
1700006756290262800,5.3012626953125,-0.13804174891430884,-9.801174783459306,0.2971845371169038
1700006756300207600,5.31120751953125,-0.13487227943218313,-9.801812496840954,0.2768971522990614
1700006756310152700,5.321152587890625,-0.13211720857038162,-9.802374806898833,0.2576296120482497
1700006756320098600,5.3310986328125,-0.12867272153915837,-9.802892693293094,0.2390030000494793
1700006756330044000,5.3410439453125,-0.12300257608140817,-9.803421101081371,0.21951558823660014
1700006756339988700,5.35098876953125,-0.11361275251340121,-9.803988671836256,0.19821330902148038
1700006756349933600,5.36093359375,-0.09927108782483264,-9.804583715119957,0.17518298217104747
1700006756359878700,5.370878662109375,-0.07856560545908287,-9.80519454049468,0.14956820091851986
1700006756369823700,5.38082373046875,-0.05062864660299383,-9.80577497073114,0.12086453200625255
1700006756379769900,5.390769775390625,-0.017466505011101252,-9.806232651370763,0.08887421523928642
1700006756389714700,5.400714599609375,0.018587993596500017,-9.806484580305218,0.05390206964993849
1700006756399659500,5.410659423828125,0.05674409270940814,-9.806473474389314,0.015826052319206065
1700006756409604900,5.42060498046875,0.10224414881886913,-9.806083598288893,-0.02555408687412273
1700006756419549700,5.4305498046875,0.1546340786064975,-9.805181096491218,-0.07008201001579872
1700006756429494500,5.44049462890625,0.2125887481154874,-9.80364848009646,-0.11700680626532993
1700006756439440600,5.450440673828125,0.2740685412770137,-9.801432557612657,-0.16496729310499503
1700006756449385700,5.4603857421875,0.3377239614445716,-9.798507610076665,-0.21350041960030794
1700006756459330800,5.470330810546875,0.40211306618154047,-9.79490052549541,-0.26192891667736695
1700006756469275600,5.480275634765625,0.4676071730183437,-9.790562788552045,-0.3107904714094475
1700006756479220700,5.490220703125,0.533667571968399,-9.785467511239647,-0.3608557576417923
1700006756489165800,5.500165771484375,0.5967631297634914,-9.780043148103356,-0.4062320092750713
1700006756499111700,5.510111572265625,0.6583689239248633,-9.774486098498105,-0.4431137696117162
1700006756509056800,5.520056884765625,0.7220709962457418,-9.768764213719964,-0.4693003137370571
1700006756519001600,5.530001708984375,0.7862330142285674,-9.763217685508728,-0.4814458383545279
1700006756528946700,5.53994677734375,0.8539029672671109,-9.757406953403352,-0.4839816769750789
1700006756538891800,5.549891845703125,0.928142069562897,-9.750721192029118,-0.482048553488031
1700006756548836600,5.559836669921875,1.0082632886998355,-9.74284826669693,-0.4803262962726876
1700006756558782700,5.56978271484375,1.08876715047881,-9.73432418397963,-0.4773815480576828
1700006756568727800,5.579727783203125,1.1633787393487989,-9.726067227765917,-0.46961102365404367
1700006756578672600,5.589672607421875,1.229680326643586,-9.71860171419084,-0.4550098495127633
1700006756588617700,5.59961767578125,1.2896705388344825,-9.711717799896002,-0.43554676842354234
1700006756598562800,5.609562744140625,1.3443889481022953,-9.705198627260327,-0.4148826044488698
1700006756608509000,5.619509033203125,1.390556971167773,-9.699564420765638,-0.39393604333624244
1700006756618453800,5.629453857421875,1.4266262095451354,-9.695153034064173,-0.3730293027773499
1700006756628398600,5.639398681640625,1.452936708843708,-9.692041624045372,-0.3516801156805828
1700006756638344000,5.649343994140625,1.471167069800198,-9.69006886266768,-0.3295431392069906
1700006756648288800,5.659288818359375,1.4836184089638291,-9.68890917123854,-0.30706257346011695
1700006756658233600,5.669233642578125,1.491750277493149,-9.688338093352318,-0.2848776113926433
1700006756668179700,5.6791796875,1.4960330693788826,-9.688278472119569,-0.2636698055279441
1700006756678124500,5.68912451171875,1.4977790362633765,-9.688535077229142,-0.24356649030642583
1700006756688070000,5.69906982421875,1.4981668665371835,-9.68896645438373,-0.22318550892099737
1700006756698014700,5.7090146484375,1.4980974545627832,-9.689426473110913,-0.2027963807617314
1700006756707959600,5.71895947265625,1.4972051818981766,-9.689950789245962,-0.1832728747221641
1700006756717905000,5.72890478515625,1.4964292290896177,-9.690381581878661,-0.1660899221930653
1700006756727850800,5.738850830078125,1.4966181757904589,-9.690590840715169,-0.15151703343135303
1700006756737795800,5.7487958984375,1.4993673283681273,-9.690362877178192,-0.13832001786641776
1700006756747740700,5.75874072265625,1.5046424922920763,-9.689716395968198,-0.12581531368088908
1700006756757685800,5.768685791015625,1.5082864017523825,-9.689294371163845,-0.11413879481465555
1700006756767630800,5.778630859375,1.5075461047790943,-9.689540454879403,-0.1022833665844053
1700006756777575700,5.78857568359375,1.5034556205950675,-9.690302086901664,-0.08956512011289595
1700006756787521800,5.798521728515625,1.4962399901278316,-9.691516723388434,-0.07861636753194033
1700006756797467000,5.808466796875,1.4875732840694487,-9.692931850883364,-0.06788870122260414
1700006756807411700,5.81841162109375,1.479685453429073,-9.694203770515323,-0.05788612518426962
1700006756817356800,5.828356689453125,1.472884979633987,-9.695285136011242,-0.049752425457467324
1700006756827301600,5.838301513671875,1.4680283333830535,-9.69605144420862,-0.04284463253011927
1700006756837246700,5.848246826171875,1.465802912418544,-9.696419108477235,-0.03543101125577232
1700006756847192800,5.85819287109375,1.463917829324305,-9.696730074122547,-0.027331661323143634
1700006756857137700,5.8681376953125,1.4640975698053835,-9.69672364438176,-0.01896517689541797
1700006756867082800,5.878082763671875,1.463756355152279,-9.696787941789626,-0.011387648605008143
1700006756877027800,5.88802783203125,1.4622338217601178,-9.697021166023612,-0.0055752063164487475
1700006756886972700,5.89797265625,1.4597807295195757,-9.697391168379783,-0.0018312849610294505
1700006756896918800,5.907918701171875,1.4571438051447272,-9.69778864326477,0.0011939498204137635
1700006756906863600,5.917863525390625,1.4557644796155391,-9.69799497949183,0.005082755186720169
1700006756916808700,5.92780859375,1.4547630474880338,-9.698141694486141,0.009985288118460448
1700006756926753800,5.93775390625,1.4522751761950552,-9.698509943276644,0.013764816931972745
1700006756936698600,5.94769873046875,1.4468084352217614,-9.699322428703308,0.01608633694840828
1700006756946643700,5.957643798828125,1.4373516016989945,-9.700727619326114,0.017430303469847423
1700006756956589800,5.96758984375,1.4241596733011304,-9.702671739131212,0.01820859664925374
1700006756966534700,5.97753466796875,1.4083447029232978,-9.704978262507915,0.01929624118891079
1700006756976478500,5.987478515625,1.3919972331039607,-9.707333301201462,0.02036484310138039
1700006756986423800,5.997423828125,1.3769446254007518,-9.70947966558039,0.020244038866460323
1700006756996368600,6.00736865234375,1.3644804267555475,-9.711243752643465,0.018370142744871552
1700006757006313500,6.0173134765625,1.3548790701955555,-9.712591660121083,0.01577982143263798
1700006757016259600,6.027259521484375,1.349459529364854,-9.713348615968227,0.01365052577787428
1700006757026204700,6.03720458984375,1.3501333369731903,-9.713257430553435,0.013051785849878797
1700006757036149800,6.047149658203125,1.3572443380221724,-9.712262574297188,0.014439648595260222
1700006757046094600,6.057094482421875,1.3721874940015375,-9.710157710972428,0.017964859012764643
1700006757056039700,6.067039794921875,1.3955980340749023,-9.706807231500743,0.023655020920303648
1700006757065984800,6.07698486328125,1.4259825048141181,-9.702371879401802,0.030911807665124066
1700006757075930600,6.0869306640625,1.460496476573497,-9.697200614243744,0.04066783648030832
1700006757085875700,6.096875732421875,1.4983543519333005,-9.69135305725932,0.05493301556629594
1700006757095820500,6.106820556640625,1.5375143959328532,-9.685092243298888,0.07369216790355276
1700006757105765600,6.116765625,1.5770974876500665,-9.678550274309515,0.09393222014806232
1700006757115710700,6.126710693359375,1.6159405746549367,-9.67191945799291,0.1143438432669267
1700006757125656600,6.136656494140625,1.6529092460900545,-9.665396193704009,0.13552204857780598
1700006757135601700,6.1466015625,1.6879200614556669,-9.658999770665169,0.1581232541628182
1700006757145546800,6.156546630859375,1.7219558943092823,-9.652593410754204,0.18084161072093993
1700006757155491600,6.16649169921875,1.754269433414936,-9.646329089662432,0.20308414819454773
1700006757165436700,6.176436767578125,1.7841516537204383,-9.640320204636454,0.22669963625548406
1700006757175381800,6.1863818359375,1.811672405591607,-9.634548050975798,0.2523864141651429
1700006757185327600,6.19632763671875,1.8368711442559957,-9.629048284515738,0.2787722802548669
1700006757195272700,6.206272705078125,1.8590631023198365,-9.62399158564806,0.30508614055430516
1700006757205217500,6.216217529296875,1.8759033240921794,-9.619891749113798,0.3302479264754802
1700006757215163000,6.226162841796875,1.8861044001109897,-9.61707143099606,0.35342958969641475
1700006757225107700,6.236107666015625,1.8891307621948419,-9.615663317763804,0.3749477766845375
1700006757235052500,6.246052490234375,1.8844827902585266,-9.615739305609464,0.39577297643981874
1700006757244998700,6.25599853515625,1.8723700353994965,-9.617247956606745,0.4161075066013261
1700006757254943500,6.265943603515625,1.8548178659655152,-9.619772506648301,0.435909500788711
1700006757264888600,6.275888671875,1.8340612014017998,-9.622848845353722,0.4554237275432795
1700006757274833700,6.285833740234375,1.8102207454785704,-9.626441901409626,0.4744646742302924
1700006757284778500,6.295778564453125,1.7851367192350327,-9.630241293692588,0.49205856391415
1700006757294723800,6.305723876953125,1.7609738994896411,-9.633923197075724,0.5068112022900954
1700006757304669700,6.315669677734375,1.738306725129485,-9.637498132953047,0.5170407737510279
1700006757314614500,6.325614501953125,1.7181658543765543,-9.640855626687406,0.5217451155170798
1700006757324559600,6.3355595703125,1.7006047709837555,-9.643958853399752,0.5219074299393222
1700006757334504700,6.345504638671875,1.6850164489686488,-9.646824764224887,0.5194907972516492
1700006757344449800,6.35544970703125,1.6710643498532474,-9.649451021075247,0.5158050214109942
1700006757354394600,6.36539453125,1.6560697559475899,-9.652269001105427,0.5114231530649587
1700006757364340500,6.375340576171875,1.6384743318937718,-9.655554014125466,0.5060200884450227
1700006757374285800,6.385285888671875,1.618072472117096,-9.659300799438357,0.5001373870819806
1700006757384230700,6.395230712890625,1.5948361195668577,-9.663464348858595,0.4943406835019588
1700006757394175500,6.405175537109375,1.5691183254644274,-9.667979195934533,0.488289603302069
1700006757404120600,6.41512060546875,1.5411099362067877,-9.672825466921925,0.48146096285842355
1700006757414065700,6.425065673828125,1.5112592800833284,-9.67790554666519,0.4739143103385344
1700006757424011800,6.43501171875,1.4816849566832184,-9.682879243424534,0.46565304327588525
1700006757433956600,6.44495654296875,1.4534282917529344,-9.687616208818554,0.45612500768043096
1700006757443901400,6.4549013671875,1.427398216830939,-9.691994862294196,0.44518104087244714
1700006757453846800,6.4648466796875,1.4041767695888876,-9.695902975648641,0.43375893515869973
1700006757463791600,6.47479150390625,1.3826448828689752,-9.69950596857667,0.4221782778823748
1700006757473737700,6.48473779296875,1.3612496281407773,-9.703031804615259,0.41056656788066026
1700006757483682600,6.4946826171875,1.3383870773389934,-9.706680390250682,0.3993346875093877
1700006757493627600,6.504627685546875,1.315373573759198,-9.710276368916034,0.388192165922001
1700006757503572700,6.51457275390625,1.293121556071192,-9.71373732302487,0.3762004070941359
1700006757513517600,6.524517578125,1.2703876000851393,-9.717233932968973,0.3630939284900203
1700006757523462700,6.534462646484375,1.2473480852812528,-9.720729373869299,0.3491844264073297
1700006757533408800,6.54440869140625,1.2235794524852186,-9.724273330086469,0.3342707887833938
1700006757543353600,6.554353515625,1.1985230449009685,-9.727920746678114,0.31854068367742
1700006757553298700,6.564298583984375,1.1714873731330036,-9.731710202088951,0.3030578495970927
1700006757563243500,6.574243408203125,1.1422679275851697,-9.735614223790169,0.2888400852828286
1700006757573188600,6.584188720703125,1.1109396001245826,-9.739600078555942,0.27632850383194163
1700006757583133700,6.5941337890625,1.0765455284178256,-9.743750183972717,0.2659536969477311
1700006757593079600,6.60407958984375,1.039205685582757,-9.748040574643015,0.25722687646625564
1700006757603024600,6.614024658203125,1.0004052686758338,-9.752274851211904,0.250434914771188
1700006757612969700,6.6239697265625,0.9613756461229175,-9.756339031910896,0.244943477748055
1700006757622914600,6.63391455078125,0.924128742268309,-9.760088155311346,0.2388481200150214
1700006757632859600,6.643859619140625,0.8918889990512281,-9.763301272138953,0.22996554271625352
1700006757642804700,6.6538046875,0.8654265971265733,-9.76597253717482,0.2172445928310044
1700006757652750800,6.663750732421875,0.8472949473042041,-9.76789561419189,0.20171707935873417
1700006757662695700,6.67369580078125,0.8370810118038207,-9.769132462510466,0.18364927028650416
1700006757672640500,6.683640625,0.8310472115322947,-9.770009829866886,0.16315202384395525
1700006757682585600,6.693585693359375,0.8275827502921224,-9.770646958726644,0.14132269768058323
1700006757692530700,6.70353076171875,0.8270921172309667,-9.770998256382345,0.11798272035908884
1700006757702475500,6.7134755859375,0.8296705894168466,-9.771053201439976,0.09242106666644104
1700006757712421600,6.723421630859375,0.8362989945806563,-9.770721193006635,0.06320709644474555
1700006757722366500,6.733366455078125,0.8479703623477369,-9.76987246722281,0.030223329927329904
1700006757732311800,6.743311767578125,0.8635778274547308,-9.768552032274007,-0.0035347448600077766
1700006757742256600,6.753256591796875,0.8815384315591305,-9.766883222278953,-0.03525063830374274
1700006757752201500,6.763201416015625,0.898053074638918,-9.765229609853028,-0.06481263651181943
1700006757762146800,6.773146728515625,0.9111031834132969,-9.76379110148251,-0.09291326149702071
1700006757772092700,6.7830927734375,0.9224191618714481,-9.762433841654659,-0.12014536001938395
1700006757782037800,6.793037841796875,0.9350137819632888,-9.760878428906201,-0.14630436768382787
1700006757791982600,6.802982666015625,0.9492890486184508,-9.759108496624231,-0.17041834331881253
1700006757801927700,6.812927734375,0.9661583503548056,-9.757048641484975,-0.19218060472849754
1700006757811872800,6.822872802734375,0.9864324920985847,-9.754600663810967,-0.21243520152159034
1700006757821818600,6.832818603515625,1.0110396215453743,-9.751647074702381,-0.23152248983466997
1700006757831763700,6.842763671875,1.039947370795533,-9.748165077805519,-0.2493804920811206
1700006757841708500,6.85270849609375,1.0725866347242146,-9.74418682182431,-0.26602738323844966
1700006757851653600,6.862653564453125,1.1079274126965553,-9.739809921914338,-0.28108015533844005
1700006757861598700,6.8725986328125,1.145754965983331,-9.735054836341739,-0.29387983301570636
1700006757871543600,6.88254345703125,1.184322085591033,-9.730145436990261,-0.303430171774514
1700006757881489700,6.89248974609375,1.222204364739731,-9.725252404251695,-0.3099418552234769
1700006757891434800,6.902434814453125,1.2582372896946965,-9.720519530510902,-0.3142512063225731
1700006757901379600,6.912379638671875,1.2915339946188031,-9.71604735353291,-0.3173982721766457
1700006757911324700,6.92232470703125,1.3213842123508452,-9.71196213004589,-0.319546097860299
1700006757921269800,6.932269775390625,1.3447475522816181,-9.708719202601909,-0.32065413216743616
1700006757931214600,6.942214599609375,1.3596003996290267,-9.706655840331315,-0.3204962747246027
1700006757941160700,6.95216064453125,1.3651597873218357,-9.705918758228421,-0.3192143086226657
1700006757951105500,6.96210546875,1.3619753120668232,-9.706433137491345,-0.3171309630099684
1700006757961050600,6.972050537109375,1.3512323842562735,-9.708031804859637,-0.31413335209656507
1700006757970995700,6.98199560546875,1.3348203247681258,-9.710406717297435,-0.3108483756091445
1700006757980941800,6.99194189453125,1.3152517009451985,-9.713177351054549,-0.3077044880928472
1700006757990886700,7.00188671875,1.2942417922727762,-9.716112235462665,-0.3041376624567434
1700006758000832800,7.011832763671875,1.271883976122737,-9.719194419386982,-0.29996110742446036
1700006758010777600,7.021777587890625,1.24813660531044,-9.722427409958838,-0.2948730818367563
1700006758020722700,7.03172265625,1.222704130955413,-9.725842771360277,-0.2887527357929386
1700006758030667800,7.041667724609375,1.1958165624212473,-9.729384389489889,-0.2819030342949554
1700006758040612600,7.051612548828125,1.168437995499745,-9.732922500488161,-0.2744761539635248
1700006758050557700,7.0615576171875,1.1421334875505418,-9.736269472828507,-0.26643704175157473
1700006758060503800,7.07150390625,1.1180349652130157,-9.739297296217083,-0.2578910029307939
1700006758070448600,7.08144873046875,1.095683651868999,-9.74206442284286,-0.2491574056486599
1700006758080393700,7.091393798828125,1.074252375979349,-9.744689510649442,-0.2395887092492543
1700006758090338800,7.1013388671875,1.052053476718068,-9.747369543513654,-0.22880597915127873
1700006758100283600,7.11128369140625,1.0290052671510725,-9.750096338129042,-0.2171492792303674
1700006758110228700,7.121228759765625,1.0049792985931039,-9.752877493280172,-0.2044766985314898
1700006758120174600,7.131174560546875,0.9795249046672135,-9.755720023229717,-0.19195592912714926
1700006758130119700,7.14111962890625,0.9510636570755392,-9.758778826278448,-0.17924266935801134
1700006758140064800,7.151064697265625,0.9173233000371604,-9.762227505427598,-0.16675731832692398
1700006758150009600,7.161009521484375,0.8795055374920367,-9.76591642307341,-0.15412569069294257
1700006758159954700,7.17095458984375,0.837909425451979,-9.769773683023452,-0.14071070326208135
1700006758169900500,7.180900634765625,0.7935478672865778,-9.77367478211522,-0.12622819619756193
1700006758179846000,7.190845947265625,0.7470029006674885,-9.777528534933925,-0.11090659882724284
1700006758189790700,7.200790771484375,0.7000405123539268,-9.781180627700685,-0.09394671446429564
1700006758199735600,7.210735595703125,0.6529477025937288,-9.784590143883229,-0.07632399141159839
1700006758209681000,7.220680908203125,0.6059242682753131,-9.787727272865176,-0.06047347479634918
1700006758219625700,7.230625732421875,0.5584096894390881,-9.790632346656919,-0.04599370767818763
1700006758229571800,7.24057177734375,0.5108792189139872,-9.793281399860977,-0.03200735695002368
1700006758239516700,7.2505166015625,0.4646088679851964,-9.795621825507283,-0.017974429417063946
1700006758249461800,7.260461669921875,0.4208244155880064,-9.797615629673004,-0.004343572458284325
1700006758259406800,7.27040673828125,0.38160902467202396,-9.799218973216414,0.007898168229655129
1700006758269351700,7.2803515625,0.349160607140325,-9.800414320480822,0.018601870283158496
1700006758279296500,7.290296630859375,0.3242223460430279,-9.801250771304964,0.027856301685178185
1700006758289242600,7.30024267578125,0.30619483244856815,-9.80179905283749,0.03699334693535929
1700006758299187700,7.310187744140625,0.2939486056692898,-9.802131061270833,0.046981997196329756
1700006758309132800,7.3201328125,0.28725747400019314,-9.802269592958687,0.05824186155307106
1700006758319077600,7.33007763671875,0.2872826815066859,-9.80219068250358,0.07035740659080911
1700006758329022700,7.340022705078125,0.2947330157789402,-9.801862765723467,0.08360696062715724
1700006758338967800,7.3499677734375,0.30950236782766877,-9.801268891483545,0.09863250679350458
1700006758348913700,7.35991357421875,0.33047260207682844,-9.800397953867911,0.115662478984287
1700006758358858800,7.369858642578125,0.3571635885929689,-9.799231248176097,0.1337611033198889
1700006758368803800,7.379803955078125,0.38915012423396106,-9.79773428761661,0.15280510048051363
1700006758378748700,7.389748779296875,0.4252389440946281,-9.795901226970553,0.1728491141296923
1700006758388693800,7.39969384765625,0.4630548069436103,-9.793789349383115,0.19414492707140743
1700006758398638800,7.409638916015625,0.501856173698604,-9.79139339415729,0.21712628194727002
1700006758408585000,7.4195849609375,0.5404383812775835,-9.788776489657163,0.24117438927181065
1700006758418529800,7.42952978515625,0.5775107688155025,-9.78605904739201,0.2644358579969965
1700006758428474600,7.439474609375,0.6121146108154207,-9.78337258478701,0.2851917919083498
1700006758438419700,7.449419677734375,0.6453954605832696,-9.780720608973503,0.3022619499790482
1700006758448364800,7.45936474609375,0.6805222304787486,-9.777895030158758,0.3162845387810841
1700006758458309600,7.4693095703125,0.7181554302372037,-9.774799402230977,0.32851058128885924
1700006758468255700,7.479255859375,0.7573170086067169,-9.771426710927486,0.3406790483905002
1700006758478200600,7.48920068359375,0.7963893012575805,-9.767781047901511,0.35580596343893556
1700006758488146000,7.49914599609375,0.8345758971150964,-9.763858906021714,0.37542876513451334
1700006758498090800,7.5090908203125,0.870338115369901,-9.759774851578474,0.3996455070242286
1700006758508035600,7.51903564453125,0.9030562166884541,-9.755572139191626,0.42860487686377013
1700006758517981000,7.52898095703125,0.9325160468634217,-9.751316819834708,0.4611075818659737
1700006758527926800,7.5389267578125,0.9590472762405872,-9.747098325356841,0.4946592113992199
1700006758537872000,7.548871826171875,0.9848096401371061,-9.742850604784488,0.526694225824438
1700006758547816700,7.558816650390625,1.0112464692290872,-9.738514036884903,0.5559708814522251
1700006758557761800,7.56876171875,1.0365143276069313,-9.734265147268772,0.5831825308416039
1700006758567707000,7.578706787109375,1.0569043508153408,-9.73042717654109,0.6100083957837894
1700006758577652700,7.58865283203125,1.072185068186,-9.727024674621223,0.6370144395984709
1700006758587597600,7.59859765625,1.0841493544850498,-9.723888130161166,0.6640859133321791
1700006758597542700,7.608542724609375,1.0947092538788914,-9.720917589917779,0.6897509543340653
1700006758607487700,7.61848779296875,1.1045050370324403,-9.718127666938305,0.7130403522457927
1700006758617432800,7.628432861328125,1.1126583867412059,-9.715678520220518,0.7334776486620307
1700006758627377700,7.638377685546875,1.1180362803872674,-9.713760119378566,0.7505082053747028
1700006758637323500,7.648323486328125,1.1212021240070462,-9.712362527540325,0.7637576361134648
1700006758647268900,7.658268798828125,1.1230667488351465,-9.711413263991474,0.7730105445619672
1700006758657213700,7.668213623046875,1.124959942170605,-9.71077087443471,0.7783181494507938
1700006758667158800,7.67815869140625,1.1281092730470001,-9.710303256922959,0.7796021979119628
1700006758677103900,7.688103759765625,1.1324311548341064,-9.710043729203939,0.7765572041928768
1700006758687048700,7.698048583984375,1.1372544833373277,-9.710030285200476,0.7696385108456015
1700006758696994800,7.707994873046875,1.1424336395408958,-9.710185768023132,0.7599383700862526
1700006758706939600,7.717939697265625,1.1454342826616017,-9.710667998582124,0.7491920812748372
1700006758716884700,7.727884765625,1.1470432522282004,-9.7113834533751,0.7373464529193937
1700006758726829800,7.737829833984375,1.1479983609959483,-9.712208213761448,0.7249018357574939
1700006758736774700,7.747774658203125,1.1464840109102428,-9.713282564994692,0.7127973372701555
1700006758746719700,7.7577197265625,1.1414940206032245,-9.714701199620961,0.7013813325036317
1700006758756665600,7.76766552734375,1.1328401009611784,-9.716498019909858,0.6904702085193246
1700006758766610700,7.777610595703125,1.1209135893892497,-9.718595868971944,0.6803185976654291
1700006758776555800,7.7875556640625,1.1068521846804766,-9.720847447291016,0.6710879741139709
1700006758786500600,7.79750048828125,1.090805305242911,-9.723277889308333,0.6621174628034233
1700006758796445700,7.80744580078125,1.069307174662128,-9.726298698434233,0.6527479422379284
1700006758806390800,7.817390869140625,1.040269661552459,-9.730057174184918,0.6436191716257482
1700006758816336600,7.827336669921875,1.0072758850976824,-9.734020817118882,0.6361058003209531
1700006758826281700,7.83728173828125,0.9740476422999054,-9.737794490438699,0.6300460618905722
1700006758836226800,7.847226806640625,0.9410212056845426,-9.741391053625941,0.6246481483697891
1700006758846171600,7.857171630859375,0.9079936000254004,-9.744908706358075,0.6186280112974345
1700006758856116700,7.86711669921875,0.8749645330615341,-9.748318222540616,0.6124956825548783
1700006758866061600,7.8770615234375,0.8420470367133617,-9.751596805819869,0.6063899860909209
1700006758876007700,7.887007568359375,0.8091551862630992,-9.754722828885912,0.6008657793093473
1700006758885952800,7.896952880859375,0.7757510754417628,-9.757733701139689,0.5960180470172316
1700006758895897600,7.906897705078125,0.7412268014840782,-9.760742819827794,0.5906526840591803
1700006758905842700,7.9168427734375,0.7088242689207196,-9.763581842646003,0.5834393551468848
1700006758915787800,7.926787841796875,0.6817628051243722,-9.766118667647241,0.5731446825604886
1700006758925732600,7.936732666015625,0.6609425007399171,-9.768256264197825,0.5610291512224823
1700006758935678700,7.9466787109375,0.6450146445721388,-9.770026781001686,0.5485801501464098
1700006758945623600,7.95662353515625,0.6337358563192188,-9.771454767978192,0.5361238425467163
1700006758955569000,7.96656884765625,0.6276648658424615,-9.772568282178044,0.5228187360979616
1700006758965513700,7.976513671875,0.6253120921712368,-9.773521052858232,0.5075940597634763
1700006758975458600,7.98645849609375,0.625977570342645,-9.774382053601741,0.489923707309924
1700006758985403600,7.996403564453125,0.6310363881021738,-9.775023274114728,0.47021450597252695
1700006758995349800,8.006349853515625,0.6416587582729757,-9.775347683763503,0.4486294642932713
1700006759005294600,8.016294677734376,0.6604299481078982,-9.77515186893046,0.4250013724790886
1700006759015239700,8.02623974609375,0.6882711641050875,-9.774371532207727,0.39786793942507354
1700006759025184500,8.0361845703125,0.7250030311096459,-9.77300608907342,0.364828752925992
1700006759035129600,8.046129638671875,0.7667577677775174,-9.771217452090978,0.3252665578663349
1700006759045074700,8.05607470703125,0.8125148719545453,-9.768884625229239,0.2812854686521925
1700006759055020500,8.0660205078125,0.8613968301538377,-9.765943895602225,0.23395715136937795
1700006759064965400,8.07596533203125,0.9103626672443001,-9.762573542386292,0.18384066467275842
1700006759074910700,8.08591064453125,0.9556327185567468,-9.759078101485967,0.1325239353409037
1700006759084855600,8.09585546875,0.9961522143412381,-9.755563371363282,0.08415855749477631
1700006759094800600,8.105800537109374,1.034289271968603,-9.751869193020463,0.04082621907952707
1700006759104745700,8.115745849609375,1.0717308946777135,-9.747911979827284,0.0001630734551686146
1700006759114691600,8.125691650390625,1.1102970644373447,-9.743511114519833,-0.04002432354553603
1700006759124636700,8.13563671875,1.1490273387175052,-9.73878291695416,-0.07878540395591407
1700006759134581500,8.14558154296875,1.1862696394622325,-9.73400620407164,-0.11069116597827523
1700006759144526600,8.155526611328124,1.2214067115560174,-9.729394326362014,-0.1319886594204232
1700006759154471700,8.1654716796875,1.2570038023769854,-9.724642163398862,-0.1471472756482195
1700006759164416500,8.17541650390625,1.2926631447792052,-9.719753222313523,-0.16062060567019507
1700006759174362600,8.185362548828126,1.3274915893152355,-9.714824533739685,-0.17411949939168989
1700006759184307500,8.195307373046875,1.3605132766902446,-9.710015672153235,-0.18704265731815248
1700006759194252500,8.20525244140625,1.3897038614697754,-9.705698393476009,-0.19624949813522397
1700006759204197600,8.21519775390625,1.4154939901560544,-9.701922382068634,-0.19866793918749318
1700006759214142500,8.225142578125,1.4390940614521504,-9.698523971801995,-0.1949559329270385
1700006759224087800,8.235087890625,1.4614965935267508,-9.695322545412182,-0.18736218986241146
1700006759234033700,8.24503369140625,1.4822826303154228,-9.692359603953362,-0.17721779420059172
1700006759243978500,8.254978515625,1.5004435792975126,-9.689766664850712,-0.1657599230537191
1700006759253923600,8.264923583984375,1.5180693984895943,-9.68723159341514,-0.15301048685950225
1700006759263868700,8.27486865234375,1.5342599241815507,-9.684893505856394,-0.13876127709420397
1700006759273813500,8.2848134765625,1.5448060142457485,-9.683425771391391,-0.12329219754459336
1700006759283758600,8.294758544921875,1.5478202475003897,-9.68313175688088,-0.10761210559280589
1700006759293704400,8.304704345703126,1.5432641916312277,-9.68402432180643,-0.09162700281245634
1700006759303649500,8.3146494140625,1.5329595091074704,-9.68579834574163,-0.07577465043314732
1700006759313594600,8.3245947265625,1.5201238468013702,-9.687930681595205,-0.0604092458871426
1700006759323539500,8.33453955078125,1.5080544926926494,-9.689897597754001,-0.045498471507150674
1700006759333484500,8.344484619140625,1.4974186785183845,-9.691604401671887,-0.03042202398733934
1700006759343430400,8.354430419921876,1.487019595709443,-9.693242816528677,-0.014602554389258147
1700006759353375700,8.364375732421875,1.4744247564218937,-9.69517758398354,0.0020265699284063884
1700006759363320600,8.374320556640624,1.4609173323340714,-9.697203536853193,0.01956808725009905
1700006759373265400,8.384265380859375,1.4497471190221607,-9.698824416053295,0.037514795259886886
1700006759383210800,8.394210693359375,1.4412852878861129,-9.700001643139123,0.05531362608144991
1700006759393155600,8.404155517578126,1.4350805880270898,-9.70080945239067,0.07212465372534935
1700006759403101700,8.414101806640625,1.4306385139264166,-9.701334937569499,0.08806436929428019
1700006759413046500,8.424046630859374,1.4269658167630432,-9.701717214885354,0.10415338910683057
1700006759422991600,8.43399169921875,1.4248761510074137,-9.701826520478726,0.12120688830367289
1700006759432936700,8.443936767578125,1.423881879273057,-9.701726567235589,0.13953585079642944
1700006759442881500,8.453881591796875,1.422966956385225,-9.701553548756241,0.15947521676104515
1700006759452826600,8.46382666015625,1.4227166348859668,-9.701225047454237,0.18028987685600295
1700006759462772500,8.4737724609375,1.4238210889965295,-9.700675012356042,0.20003102596793323
1700006759472717600,8.483717529296875,1.4266511978559195,-9.69989350658953,0.21705756409261373
1700006759482662700,8.49366259765625,1.4312991697922348,-9.698843705275655,0.23278021654449402
1700006759492607500,8.503607421875,1.4355255553156137,-9.697870476329326,0.2469235821819864
1700006759502552600,8.513552490234375,1.436434340723604,-9.697373632723092,0.2607087637652643
1700006759512497700,8.52349755859375,1.4327818095654248,-9.697516840586065,0.27513160393126307
1700006759522443500,8.533443603515625,1.4245537871852516,-9.698300684440136,0.2897769642741419
1700006759532388600,8.543388671875,1.4128339771665632,-9.699593646860123,0.30355916844904424
1700006759542333700,8.553333740234375,1.3983346194319426,-9.701315648347139,0.3154865568038076
1700006759552278500,8.563278564453125,1.381189861755073,-9.703447399678826,0.3252462457306683
1700006759562223600,8.5732236328125,1.3636129962712527,-9.705649878159164,0.3336034839810803
1700006759572168700,8.583168701171875,1.3453865808375178,-9.707900287434459,0.3420348834462464
1700006759582114800,8.59311474609375,1.3252167762510478,-9.71036054006815,0.35088396033421154
1700006759592059600,8.6030595703125,1.3029082060702144,-9.713047587195039,0.35985048958938565
1700006759602004500,8.61300439453125,1.2790147047854958,-9.715864398181438,0.3694556820742786
1700006759611949600,8.622949462890626,1.25398810781762,-9.718718618568778,0.38005489056520164
1700006759621894700,8.632894775390625,1.2272608444117008,-9.721678637418151,0.391396222660318
1700006759631839500,8.642839599609376,1.1983835633650421,-9.724837393710017,0.4022535706307739
1700006759641785600,8.65278564453125,1.170049230088666,-9.727897365802527,0.4115762929124757
1700006759651730400,8.66273046875,1.1445670713730156,-9.730610131892561,0.4190106076316908
1700006759661675800,8.67267578125,1.1223317856241017,-9.732978614589571,0.42411611407715827
1700006759671620600,8.68262060546875,1.1023946938149631,-9.735135500362516,0.4269197367884218
1700006759681565400,8.6925654296875,1.0847511928357183,-9.73708429634273,0.42768732362743467
1700006759691510800,8.7025107421875,1.0698482227362691,-9.738732648071647,0.4276679978724569
1700006759701456600,8.71245654296875,1.058088299902901,-9.740051913976668,0.42685646229386326
1700006759711401700,8.722401611328126,1.0505678412701933,-9.740992409697174,0.4239634077334776
1700006759721346600,8.7323466796875,1.0484943959970026,-9.741464118862151,0.4182458703368902
1700006759731291600,8.742291748046876,1.0524137613978237,-9.741363581097126,0.4106456975314766
1700006759741236700,8.75223681640625,1.0648643699090927,-9.740263510900736,0.4045991473762318
1700006759751181600,8.762181640625,1.0802191023640333,-9.738811558526754,0.3987857483897358
1700006759761127700,8.772127685546875,1.097988056353852,-9.73712229026556,0.3915155747236684
1700006759771072500,8.782072509765625,1.1162011008493602,-9.735391520950198,0.3829576262693852
1700006759781017600,8.792017578125,1.1362778203248978,-9.733438048794865,0.373467036607489
1700006759790962700,8.801962646484375,1.157385198022425,-9.731345460429788,0.36301629667654634
1700006759800907500,8.811907470703124,1.1793890861682592,-9.7291570104748,0.3506524166006595
1700006759810852600,8.8218525390625,1.201538739460334,-9.726894910761713,0.33793164937850084
1700006759820798700,8.831798828125,1.2232939135421066,-9.724597739735245,0.3258079712666571
1700006759830743600,8.84174365234375,1.2417245463110507,-9.7225373000741,0.3174872291017324
1700006759840688600,8.851688720703125,1.2533651536136865,-9.721166596242785,0.3136800553711131
1700006759850633700,8.8616337890625,1.257984776238352,-9.720601363575458,0.312692980562523
1700006759860578600,8.87157861328125,1.257996905067563,-9.720543495908379,0.3144068352757022
1700006759870523600,8.881523681640624,1.2531246228560804,-9.721038585948943,0.3185913909513503
1700006759880469500,8.891469482421876,1.243492871157825,-9.722020582723617,0.3262636426122859
1700006759890414600,8.90141455078125,1.2287471374467014,-9.723481302925943,0.33836887175198643
1700006759900359700,8.911359619140624,1.2089192051004618,-9.725345343232155,0.3557968668170273
1700006759910304500,8.921304443359375,1.185367722186446,-9.72736895801425,0.3789529572052881
1700006759920249600,8.93124951171875,1.1630386206742376,-9.728962949207425,0.4061988011252135
1700006759930194700,8.941194580078125,1.145124120733887,-9.729877141442895,0.4342311923129484
1700006759940140500,8.951140625,1.133123447947204,-9.7299957993865,0.4621302029119804
1700006759950085600,8.961085693359376,1.1276492543198167,-9.729417122715711,0.48707072903160004
1700006759960030500,8.971030517578125,1.128657189253345,-9.7281878731817,0.5087818447759375
1700006759969975800,8.980975830078124,1.1332913518600165,-9.726631875911355,0.5278963316231966
1700006759979920600,8.990920654296875,1.1397090368825942,-9.724954298087955,0.5447190908040851
1700006759989865500,9.000865478515625,1.1459893592610955,-9.723384272292256,0.559348175865598
1700006759999811300,9.010811279296876,1.149926990970969,-9.722208798772096,0.5716058190880343
1700006760009756700,9.020756591796875,1.1502720050163566,-9.721594466266035,0.5812506129309535
1700006760019701500,9.030701416015624,1.1461045831385999,-9.721720722994208,0.5873550307532772
1700006760029646300,9.040646240234375,1.1360706073150038,-9.722828976497054,0.5885162930849939
1700006760039591400,9.05059130859375,1.1203524483751506,-9.72488707807064,0.5846196144400164
1700006760049536500,9.06053662109375,1.1015129425443708,-9.727499890917539,0.5769080536819994
1700006760059482600,9.070482666015625,1.0817606327176092,-9.730345343476534,0.5662041427075862
1700006760069427500,9.080427490234374,1.0620301693964749,-9.733256847009063,0.5533554017242044
1700006760079372300,9.090372314453125,1.0430427795276045,-9.736067812776565,0.5398755232304334
1700006760089317600,9.100317626953125,1.026396472892165,-9.738588271164893,0.5261219423618168
1700006760099262500,9.110262451171875,1.011964481305331,-9.74083283522129,0.5123615298936143
1700006760109207600,9.12020751953125,1.0011194813597948,-9.742646606644987,0.49899786165803667
1700006760119153400,9.1301533203125,0.9953441128287464,-9.743869426438211,0.4865245663909241
1700006760129098500,9.140098388671875,0.9948904507771134,-9.744500125557183,0.47467236216422165
1700006760139043600,9.150043701171874,0.9991007619485258,-9.744604170453547,0.46354536693952975
1700006760148988400,9.159988525390625,1.006616544406116,-9.744308986899256,0.45335875783748925
1700006760158933500,9.16993359375,1.015396939972043,-9.743801037377118,0.4446129221282899
1700006760168878600,9.179878662109376,1.0235703095555304,-9.743269122457503,0.43750849695056676
1700006760178824400,9.189824462890625,1.030493606012687,-9.742745390844345,0.4328969480345025
1700006760188769500,9.19976953125,1.036220751487836,-9.74223159610331,0.43077506050970404
1700006760198714400,9.20971435546875,1.040736840672791,-9.74174819650054,0.4308060767024755
1700006760208659500,9.219659423828125,1.0436676334276795,-9.741243754109739,0.4351041392225772
1700006760218604500,9.2296044921875,1.0468048354748636,-9.740564539673924,0.4427037275061011
1700006760228550400,9.23955029296875,1.0497427886229007,-9.739857852709292,0.45117889304775743
1700006760238495500,9.24949560546875,1.0522501683339476,-9.739163440704345,0.46025973286498334
1700006760248440600,9.259440673828125,1.0557031583320349,-9.738366152846814,0.4691361726839095
1700006760258385400,9.269385498046875,1.0583667515181003,-9.737655958750844,0.4777834068568423
1700006760268330500,9.27933056640625,1.0589761155880988,-9.737203538808226,0.48561738841813057
1700006760278275600,9.289275634765625,1.0560820746470243,-9.737240948209166,0.4911521896589547
1700006760288220400,9.299220458984376,1.0478894889064132,-9.737945297086238,0.4946952690932899
1700006760298166500,9.30916650390625,1.0354505708329378,-9.73915291931033,0.4971248708603903
1700006760308111400,9.319111328125,1.0181155512809752,-9.740933957508206,0.49802901662588117
1700006760318056700,9.329056640625,0.9988060898508876,-9.742968093684315,0.4973280287496745
1700006760328001500,9.33900146484375,0.9790427471734583,-9.745068865355849,0.4954915705701336
1700006760337946400,9.3489462890625,0.9577876315683126,-9.747316352021693,0.4928080305745825
1700006760347891500,9.358891357421875,0.9341711205940693,-9.74982044379711,0.4885927509671077
1700006760357837300,9.36883740234375,0.9078062607597559,-9.752616211995482,0.48248632385078816
1700006760367782700,9.37878271484375,0.8789865551192313,-9.755615393811464,0.47514677474293854
1700006760377727500,9.3887275390625,0.8485241968382149,-9.75868121112287,0.46745804687123743
1700006760387672300,9.39867236328125,0.8190148284330964,-9.76153484698832,0.4604563148830086
1700006760397617700,9.40861767578125,0.7920930653683841,-9.763989838925003,0.45548970545157785
1700006760407562500,9.4185625,0.7668873855065554,-9.766126266431808,0.4527987128019333
1700006760417508600,9.428508544921876,0.7435694190874695,-9.767947052118181,0.4524533699629828
1700006760427453400,9.438453369140625,0.7224297465555369,-9.769453949549794,0.45414797198642043
1700006760437398500,9.4483984375,0.7038027144316583,-9.770660987251997,0.45742801657039667
1700006760447343600,9.458343505859375,0.6871819806288927,-9.77160499010384,0.46251741213127967
1700006760457288400,9.468288330078124,0.672952891203016,-9.772261992707849,0.4695101570954546
1700006760467233500,9.478233642578125,0.6613290158394723,-9.772606860622764,0.4787336567863822
1700006760477179600,9.4881796875,0.651049906148389,-9.772765850576757,0.4894620811475441
1700006760487124500,9.49812451171875,0.6411139108065516,-9.77283774676919,0.5009872088443488
1700006760497069600,9.508069580078125,0.6316357422348111,-9.772848268163203,0.5127209743231534
1700006760507014400,9.518014404296874,0.6227284323535859,-9.772806767109035,0.5242646605899557
1700006760516959500,9.52795947265625,0.6150974990837276,-9.77268810916543,0.535350191293098
1700006760526904600,9.537904541015624,0.6097997945344075,-9.772415721964835,0.5462674162246287
1700006760536850400,9.547850341796876,0.6067724095372483,-9.771984929332136,0.5572262518081814
1700006760546795500,9.55779541015625,0.6072600469237193,-9.771308637505769,0.5684541501240804
1700006760556740600,9.56774072265625,0.6112153238881379,-9.770388600051403,0.5799305798409506
1700006760566685400,9.577685546875,0.6180568603459745,-9.769278592982888,0.5912807162970304
1700006760576630500,9.587630615234374,0.6278693754386157,-9.767975109168887,0.6023797275362536
1700006760586575600,9.59757568359375,0.638710575991869,-9.766633046910167,0.6126293188719079
1700006760596521700,9.607521728515625,0.6495809295743703,-9.765403797376155,0.6207205996625125
1700006760606466600,9.617466552734374,0.6614028847932815,-9.764253458297253,0.6263219268009066
1700006760616411400,9.627411376953125,0.6741423932485282,-9.763204241505264,0.6290806509245187
1700006760626356500,9.6373564453125,0.6871604994494468,-9.762276605266331,0.6293918357655406
1700006760636301600,9.647301513671875,0.7012083870895206,-9.761399822431802,0.6275327638953924
1700006760646246400,9.657246337890625,0.7165448532354086,-9.760502581331133,0.6241431214570998
1700006760656192500,9.667192626953126,0.731744906585291,-9.759654440069198,0.6197742587231099
1700006760666137300,9.677137451171875,0.7453458541754633,-9.758933140057325,0.6148946699880063
1700006760676082700,9.687082763671874,0.7566158015348017,-9.758409992966055,0.6094060825090855
1700006760686027500,9.697027587890625,0.7657054822456091,-9.758091428536176,0.6030875104794279
1700006760695972400,9.706972412109375,0.7738925880935043,-9.75789853631258,0.5957164702547714
1700006760705917700,9.716917724609376,0.7829151949174702,-9.757642515724896,0.5880971178248524
1700006760715863600,9.726863525390625,0.7927562054522335,-9.75732044416368,0.5801994964428245
1700006760725808600,9.73680859375,0.8007312029194086,-9.75715327090323,0.5719883886648341
1700006760735753500,9.74675341796875,0.8052709652408957,-9.757229843270778,0.5642728458514437
1700006760745698600,9.756698486328125,0.8102479499358684,-9.757584648057819,0.5508488987959921
1700006760755643600,9.7666435546875,0.8139967810753732,-9.757983876508474,0.5381014992952347
1700006760765588500,9.77658837890625,0.8190374786563217,-9.758287243369221,0.5247825835168362
1700006760775534600,9.78653466796875,0.826723503114283,-9.758405316790938,0.5103330562733114
1700006760785479400,9.7964794921875,0.8390613719660788,-9.758174430644512,0.4943695808028802
1700006760795424500,9.806424560546875,0.8570888307616115,-9.757446116369962,0.4775276054648682
1700006760805369600,9.81636962890625,0.8802530679237097,-9.756192901438475,0.46067817747276274
1700006760815314400,9.826314453125,0.9066658585529774,-9.75450421769917,0.44494339619167145
1700006760825259500,9.836259521484376,0.933661563636735,-9.752610951298475,0.4304077980998903
1700006760835205600,9.84620556640625,0.9612046734701841,-9.750452896481752,0.4184951323902234
1700006760845150500,9.856150390625,0.9874641732338816,-9.748197811031341,0.4098276956794783
1700006760855095600,9.866095458984375,1.0122096151728182,-9.745893625742196,0.4041873882375657
1700006760865040600,9.87604052734375,1.0356623138874768,-9.743560798880457,0.40103224867489184
1700006760874985500,9.8859853515625,1.0574102545108646,-9.741234401759504,0.4007758627610281
1700006760884930600,9.8959306640625,1.0766834025185554,-9.739029585191608,0.40301640822943297
1700006760894876400,9.90587646484375,1.092893071302399,-9.736994279971718,0.40854664289299397
1700006760904821800,9.91582177734375,1.1056908858161418,-9.735150113409757,0.41792500435207036
1700006760914766600,9.9257666015625,1.115649312185496,-9.73341057626605,0.4317728028427809
1700006760924711400,9.93571142578125,1.1225736315559596,-9.731790866109728,0.4499659370614216
1700006760934656500,9.945656494140625,1.1264351292897015,-9.730321378079056,0.47158495407551526
1700006760944601600,9.9556015625,1.1276876866340637,-9.72893430763483,0.49652895079385484
1700006760954547500,9.96554736328125,1.1273857810780405,-9.727519764661789,0.5241727445228025
1700006760964492500,9.975492431640625,1.1260760136537253,-9.726036248105764,0.5536632986295968
1700006760974437400,9.985437255859376,1.1253660387534647,-9.724314831140637,0.584511331759952
1700006760984382700,9.9953828125,1.1259867279350757,-9.722267835482954,0.6165013014670461
1700006760994327600,10.00532763671875,1.1283343870397657,-9.719930916967987,0.6482292227044701
1700006761004272400,10.0152724609375,1.131011058903113,-9.717608611500262,0.6776951903592795
1700006761014218500,10.025218505859375,1.1326381486482917,-9.715614222812652,0.7031072795134037
1700006761024163600,10.03516357421875,1.1334077447813005,-9.714059979107976,0.7230597150221466
1700006761034108400,10.0451083984375,1.1328040067344902,-9.712992057615518,0.7381801272645592
1700006761044053500,10.055053466796876,1.129690697019547,-9.712512165144085,0.7491836057074368
1700006761053998600,10.06499853515625,1.1245251309499145,-9.712610364821552,0.7556750135533511
1700006761063943700,10.074943603515624,1.1177717842321842,-9.713214760455488,0.757911394303292
1700006761073889500,10.0848896484375,1.1106502617891878,-9.714260470116137,0.7549686919149011
1700006761083834400,10.09483447265625,1.1050334448207169,-9.71550608626306,0.7471286459390074
1700006761093779500,10.104779541015626,1.1023338304731993,-9.71675579406321,0.7347874891515821
1700006761103724500,10.114724609375,1.101926053389907,-9.717919577145576,0.7198373919747769
1700006761113669600,10.124669677734374,1.1013829594891518,-9.719300217849016,0.7018131480496377
1700006761123614500,10.134614501953125,1.0993981423474848,-9.72097019688785,0.6814994049478322
1700006761133560300,10.144560302734375,1.0964931416209787,-9.722746558910607,0.6605041093226521
1700006761143505700,10.154505615234376,1.0932352358035742,-9.724539872068165,0.6391779743079096
1700006761153450500,10.164450439453125,1.0897530927762389,-9.726256612858176,0.6186898975525051
1700006761163395300,10.174395263671874,1.0851946257542817,-9.727966923907399,0.5995201733866706
1700006761173340700,10.184340576171875,1.0793507220316678,-9.72969827774465,0.5817066861353815
1700006761183285500,10.194285400390624,1.0720380609307438,-9.73147230167985,0.5653302094172686
1700006761193230600,10.204230712890626,1.0635127361044288,-9.733259769618511,0.5504479167796671
1700006761203176400,10.214176513671875,1.0535957377240062,-9.735075879129766,0.5372623085247352
1700006761213121500,10.22412158203125,1.0416277250979096,-9.737034027460217,0.5249175715407356
1700006761223066600,10.234066650390625,1.0280990390263498,-9.739133045566081,0.5125196430647745
1700006761233011500,10.244011474609374,1.0143834520805626,-9.741246092197299,0.4995199493033811
1700006761242956300,10.253956298828125,1.0016288921866565,-9.743262692716717,0.48574247610252347
1700006761252901600,10.263901611328125,0.9895869375415146,-9.745203305390477,0.47128790735770015
1700006761262847500,10.273847412109374,0.978769556255266,-9.746997787591814,0.45652635502293704
1700006761272792600,10.28379248046875,0.9681826227240263,-9.74881506614685,0.43997127033490685
1700006761282737400,10.2937373046875,0.9580013473842293,-9.75065864818692,0.42103860632795836
1700006761292682500,10.3036826171875,0.9489136394347994,-9.752411044812202,0.400533578437753
1700006761302627600,10.313627685546875,0.9410787810906768,-9.754064657238125,0.3781410928331315
1700006761312572400,10.323572509765626,0.9330849327925592,-9.755746911236644,0.3537533417580649
1700006761322518500,10.3335185546875,0.9239382611975073,-9.757502814993261,0.32843174389898777
1700006761332463600,10.343463623046874,0.9134669899351894,-9.759312494763732,0.3029691301340237
1700006761342408400,10.353408447265625,0.9010525487158447,-9.761218620646,0.2776800463050604
1700006761352353500,10.363353515625,0.8865249878000467,-9.763219439074396,0.2529945909250527
1700006761362298400,10.37329833984375,0.8707201004248112,-9.76522668724358,0.2293479405408725
1700006761372243500,10.383243408203125,0.8542356332875788,-9.767195356968045,0.20630005976743995
1700006761382189600,10.393189453125,0.839806564310193,-9.768909175148606,0.18307194532258436
1700006761392134400,10.403134521484375,0.8286884465117007,-9.770253575494884,0.16057430057674646
1700006761402079500,10.41307958984375,0.8181055315684527,-9.77145710606575,0.1403469205841422
1700006761412024600,10.423024658203126,0.8063578106295317,-9.772674080640076,0.12248923799809999
1700006761421969400,10.432969482421875,0.7927261756401509,-9.773969381147623,0.10730164227099158
1700006761431914500,10.44291455078125,0.7776951221816242,-9.775303260099887,0.09504783497345633
1700006761441860400,10.4528603515625,0.7620393609534949,-9.776628955745696,0.08508551788027398
1700006761451805700,10.4628056640625,0.7472034647408873,-9.777843007710576,0.07654312775472644
1700006761461750500,10.47275048828125,0.735085887576267,-9.778817405700684,0.06898520035557448
1700006761471695400,10.4826953125,0.7255949325881897,-9.779574946069717,0.061913471871055656
1700006761481640700,10.492640625,0.7191149959843606,-9.780093416985869,0.05520095948721282
1700006761491585500,10.50258544921875,0.7159710719354451,-9.78035294470489,0.04972376561856363
1700006761501531600,10.51253173828125,0.7156856791228056,-9.78038976958394,0.046566676127398385
1700006761511476500,10.5224765625,0.7163457504667341,-9.780345930442213,0.04572907452578656
1700006761521421300,10.53242138671875,0.7184326397433877,-9.780186355966329,0.04694721357731614
1700006761531366700,10.54236669921875,0.7226183279301971,-9.779864284405111,0.04958829353747424
1700006761541311500,10.5523115234375,0.7279902302268892,-9.779446351253986,0.05318604860138148
1700006761551256300,10.56225634765625,0.7351382753506303,-9.778888717371224,0.0576607600297546
1700006761561202400,10.572202392578125,0.7441547446947544,-9.778168001881241,0.0637036980223842
1700006761571147500,10.5821474609375,0.7548375398159026,-9.777285373827814,0.07281207886708434
1700006761581092600,10.592092529296876,0.766527539218217,-9.776270059305428,0.08584120421893894
1700006761591037400,10.602037353515625,0.7771361731246114,-9.775269357830286,0.10273177707218564
1700006761600982500,10.611982421875,0.7847041972260922,-9.774414202305675,0.12440301746386102
1700006761610927600,10.621927734375,0.7876013069070875,-9.773792855536938,0.15193691194439307
1700006761620873500,10.63187353515625,0.785696350068599,-9.773409409177303,0.1831339594418183
1700006761630818600,10.641818603515626,0.7828844344530255,-9.772961665409802,0.2160455923047848
1700006761640763600,10.651763671875,0.7826497489143163,-9.772194772690534,0.24909922745432703
1700006761650708500,10.66170849609375,0.7853028207063675,-9.771097040581703,0.28170915569067
1700006761660653600,10.671653564453125,0.7909624539032578,-9.769697695177793,0.31268399353846904
1700006761670598400,10.681598388671874,0.7995427237872034,-9.768003750741482,0.34232571961898356
1700006761680544500,10.69154443359375,0.8115548678159713,-9.765970783609152,0.3709324766285717
1700006761690489600,10.701489501953125,0.8250377419844269,-9.763713360071181,0.3995112861853093
1700006761700434400,10.711434326171876,0.837177092589438,-9.761447753226756,0.42854361166320737
1700006761710379500,10.721379638671875,0.8462991411998867,-9.75931307928562,0.45824262088891116
1700006761720324600,10.73132470703125,0.8523837218105792,-9.757343240517377,0.48794762146398424
1700006761730269400,10.74126953125,0.8549973383750766,-9.755578568932414,0.5177355876147747
1700006761740215600,10.751215576171875,0.8536286803703754,-9.75409271428883,0.547148875234276
1700006761750160400,10.761160400390626,0.8486017190538346,-9.752949973994493,0.5746405836740508
1700006761760105700,10.771105712890625,0.8415178982727229,-9.752082543510198,0.5992501973388716
1700006761770050600,10.781050537109374,0.8337320667020977,-9.751475809788703,0.6196778126113116
1700006761779995400,10.790995361328125,0.8266007535174489,-9.751063721856474,0.6355216437574476
1700006761789940500,10.8009404296875,0.8202548185568302,-9.75084803327918,0.6469413748510181
1700006761799886600,10.810886474609376,0.8150081500750035,-9.750821729794144,0.6539273612808436
1700006761809831700,10.820831787109375,0.8113844796851277,-9.750881935548781,0.6575270662732422
1700006761819776500,10.830776611328124,0.811066426711902,-9.75088368911445,0.6579108048938215
1700006761829721300,10.840721435546875,0.8133589215632527,-9.750887780767679,0.6549952097080648
1700006761839666700,10.850666748046875,0.8167891152076423,-9.75101520653963,0.6488122102241963
1700006761849611500,10.860611572265626,0.8217894077129662,-9.75101520653963,0.6424672251116484
1700006761859557600,10.8705576171875,0.8292017297960818,-9.750871414154767,0.6350804758612066
1700006761869502500,10.88050244140625,0.8367188274279236,-9.75082699049115,0.6258174113448709
1700006761879447600,10.890447509765625,0.8435004503920673,-9.750879597461223,0.6158206987917423
1700006761889392600,10.900392578125,0.8510161597844212,-9.750817638140916,0.606407046823576
1700006761899337500,10.91033740234375,0.8581250419415533,-9.750710086113214,0.5980426847126334
1700006761909282600,10.920282470703125,0.8647952404204755,-9.750581491297483,0.5904696921750903
1700006761919228700,10.930228759765624,0.8727721375837921,-9.750256497126816,0.5840947137830779
1700006761929173500,10.940173583984375,0.8812379142425953,-9.749752639257908,0.5797734165178612
1700006761939118600,10.95011865234375,0.8886861113566905,-9.74919032920003,0.5778679482227191
1700006761949063400,10.9600634765625,0.8930209987558424,-9.748802791187167,0.5777409243095666
1700006761959008500,10.970008544921875,0.8927314412247389,-9.74872388073206,0.5794701957875862
1700006761968953600,10.97995361328125,0.8879222873773426,-9.748917357477545,0.5835884812939912
1700006761978899000,10.98989892578125,0.8803438149470836,-9.749247612345219,0.5895318998683243
1700006761988844000,10.999843994140624,0.8707301834274083,-9.749652101492881,0.5970881239341571
1700006761998789000,11.0097890625,0.8594554868277162,-9.750132578486204,0.6055275240426883
1700006762008734000,11.01973388671875,0.8467242347441614,-9.750728790813683,0.6137840783976019
1700006762018678800,11.0296787109375,0.8329947654034942,-9.751445414650439,0.6211529997304082
1700006762028624100,11.0396240234375,0.8191447384230792,-9.752199447888135,0.6276673500604927
1700006762038569000,11.04956884765625,0.8064680660709739,-9.752926008597015,0.6328136269077659
1700006762048515000,11.05951513671875,0.7941556969866156,-9.753698746535182,0.6364676193706691
1700006762058460000,11.0694599609375,0.7818468350335955,-9.754580790066719,0.6381473891511559
1700006762068405000,11.079405029296876,0.770030651968345,-9.75550959534943,0.6383495606597512
1700006762078350000,11.08935009765625,0.7575129695702344,-9.756476394554973,0.6385566275391727
1700006762088295000,11.099294921875,0.7431873609673232,-9.757619719371199,0.6379139457214623
1700006762098240000,11.109239990234375,0.7267739863049238,-9.75894073884189,0.6366088544722646
1700006762108186000,11.11918603515625,0.7086131834533065,-9.760391522172092,0.6348354881241918
1700006762118131000,11.129130859375,0.6885035115562379,-9.761972069361805,0.6326691769357771
1700006762128076000,11.139075927734375,0.6672449618849903,-9.76358710334301,0.6305096608143299
1700006762138021000,11.149021240234376,0.6461590653669089,-9.765197461149096,0.6275400704190135
1700006762147966000,11.158966064453125,0.6259000481270254,-9.766742352503538,0.6240068547915667
1700006762157911000,11.1689111328125,0.6066626290198415,-9.768196642965078,0.6202228062082081
1700006762167857000,11.17885693359375,0.5883524077601731,-9.76953578261435,0.616761194512248
1700006762177802000,11.188802001953125,0.5694861600529402,-9.77078665945828,0.6146516550123691
1700006762187747000,11.1987470703125,0.5488988972393796,-9.771961548456549,0.6146919139575213
1700006762197692000,11.20869189453125,0.5266013233765959,-9.772991476026176,0.6178281661566346
1700006762207637000,11.218636962890624,0.5034265648204833,-9.773823250675202,0.623950813755393
1700006762217582000,11.22858203125,0.4811506548002362,-9.774353412029146,0.6331487040810286
1700006762227528200,11.238528076171875,0.46169214028827843,-9.774557994690538,0.6443883293673396
1700006762237473000,11.24847314453125,0.44582149420045314,-9.774469147363304,0.6567992634553462
1700006762247417900,11.25841796875,0.4330902421168983,-9.774152921020985,0.6699000064384192
1700006762257363200,11.26836328125,0.4225218671556562,-9.773640295323728,0.6839598767772317
1700006762267308000,11.27830810546875,0.4133241229604929,-9.772997321245073,0.6986164709001779
1700006762277252900,11.2882529296875,0.40550796931684013,-9.77222107617557,0.7138889318991452
1700006762287199000,11.298198974609376,0.40036209432836617,-9.771274735236167,0.7295869248338043
1700006762297144000,11.30814404296875,0.399302904131636,-9.770110367631911,0.7455867502592504
1700006762307089200,11.318089111328124,0.4022906512381509,-9.768739079278706,0.7617809292130172
1700006762317034000,11.328033935546875,0.4097222625436261,-9.767153855913877,0.7779788344938308
1700006762326978800,11.337978759765624,0.4219358108960092,-9.765365803453326,0.7937325762037187
1700006762336924200,11.347924072265625,0.43829080643467605,-9.76347604418397,0.8079734291326254
1700006762346870000,11.3578701171875,0.45927927046027034,-9.761465288883446,0.8205206298861653
1700006762356815000,11.367815185546876,0.48455567747075107,-9.759302557891607,0.8316211389627307
1700006762366760000,11.377760009765625,0.5123595205996185,-9.756953364416956,0.8424594169065356
1700006762376705000,11.387705078125,0.5395143252352252,-9.754533443793655,0.853456246412918
1700006762386650000,11.397650146484375,0.5624362780740484,-9.752260822686553,0.8645581437289714
1700006762396595000,11.407594970703125,0.5808516767412424,-9.750202721112966,0.875533565121144
1700006762406541000,11.417541015625,0.5938316428888589,-9.748435126918555,0.8864343869071454
1700006762416486100,11.427486083984375,0.600887187423557,-9.746956286537646,0.8978564560882747
1700006762426431000,11.437430908203124,0.6005097324132919,-9.7457743832767,0.9108437287595123
1700006762436376000,11.4473759765625,0.5935503782620654,-9.74488181835115,0.9248658243712037
1700006762446321000,11.45732080078125,0.5864688955685123,-9.744017894998192,0.9383875692453235
1700006762456266000,11.467265869140626,0.5807815706470981,-9.743176183477043,0.9505847144521772
1700006762466212000,11.477212158203125,0.5746324734328314,-9.742476510775088,0.9614292760062962
1700006762476157000,11.487156982421874,0.5690404621120542,-9.741873868706822,0.970808806509152
1700006762486102000,11.49710205078125,0.5645170298708603,-9.741450674858688,0.9776687554065138
1700006762496047000,11.507047119140625,0.5620324465135113,-9.74126362785399,0.9809467541638761
1700006762505992000,11.516991943359375,0.5641465525906533,-9.741264212375878,0.9797282452195882
1700006762515937000,11.52693701171875,0.5720668972611427,-9.74137117988169,0.9740761377420276
1700006762525883000,11.5368828125,0.58415714802742,-9.74157634706497,0.9648078855939209
1700006762535828200,11.546828125,0.5965966871554031,-9.74202584439814,0.9525661705929785
1700006762545773000,11.55677294921875,0.6067356211908161,-9.742814948949217,0.9379944782745092
1700006762555718000,11.5667177734375,0.6136361212942749,-9.743937815499304,0.9217050222527235
1700006762565663000,11.5766630859375,0.6174283531840891,-9.745350020384787,0.9040662705138325
1700006762575608000,11.586608154296876,0.6185430364277213,-9.746982590022682,0.8855136918656528
1700006762585554200,11.59655419921875,0.6179334531620144,-9.748812728059292,0.8655643250968307
1700006762595499000,11.6064990234375,0.6162663236673921,-9.750727621769904,0.8449295333471148
1700006762605443800,11.61644384765625,0.6144681882042438,-9.752740715157985,0.8227185052566229
1700006762615389200,11.62638916015625,0.6135896518040448,-9.754787126293778,0.7987655288696288
1700006762625334000,11.636333984375,0.6141056385021656,-9.756709618788957,0.7745132772751152
1700006762635278800,11.64627880859375,0.6160371910866349,-9.758409992966055,0.7512133579693734
1700006762645224200,11.65622412109375,0.6172070385836065,-9.759915721353888,0.7304075935669243
1700006762655170000,11.666170166015625,0.6162215346775949,-9.761259537178278,0.7130821455609053
1700006762665115100,11.676115234375,0.6134343881770968,-9.762455468964577,0.6989720063395798
1700006762675060000,11.68606005859375,0.6097335974304006,-9.763504101234673,0.687456194460392
1700006762685005000,11.696005126953125,0.6068727646391838,-9.764356334149836,0.6778188167389482
1700006762694950100,11.7059501953125,0.6056824588760733,-9.764970666655897,0.6699665688686073
1700006762704895000,11.71589501953125,0.6054941332297399,-9.765382754588126,0.6641198886670172
1700006762714841000,11.725841064453125,0.6053887000938877,-9.765662740573287,0.6601048808719963
1700006762724786000,11.735785888671876,0.6045748629603535,-9.76582173052728,0.6584730418864637
1700006762734731000,11.74573095703125,0.6033715515851974,-9.765849787577986,0.6591646774124353
1700006762744676000,11.755676025390626,0.60154948725719,-9.765801856783032,0.6615558103326707
1700006762754621000,11.765620849609375,0.599232661682181,-9.765687875014542,0.6653063950378447
1700006762764566000,11.77556591796875,0.5971919861674309,-9.765520701754093,0.6695835609003901
1700006762774512000,11.78551220703125,0.5967221766985953,-9.76522785628736,0.6742613434530794
1700006762784457000,11.79545703125,0.5972760111890733,-9.764875389587878,0.6788443603944033
1700006762794402000,11.805402099609376,0.5986945362174884,-9.764428230342268,0.6839989666786045
1700006762804347100,11.81534716796875,0.6010128596298396,-9.763896315422654,0.6895651494383812
1700006762814292000,11.8252919921875,0.6042402972437441,-9.76325158777833,0.6958325392700732
1700006762824237000,11.835237060546875,0.6088985713783651,-9.762439686873554,0.7031137092541903
1700006762834183000,11.845182861328125,0.61559185847193,-9.761410343825817,0.7115432455558329
1700006762844128300,11.855128173828126,0.625783143749088,-9.76009750766158,0.7206095453910529
1700006762854073000,11.865072998046875,0.639488647692278,-9.758505270034075,0.7300823071353137
1700006762864018000,11.875017822265624,0.657120458233729,-9.756587453714012,0.7399977711457759
1700006762873963000,11.884962890625,0.6788604347463697,-9.754329445654154,0.7500638226080686
1700006762883908000,11.894908203125,0.7041290237765759,-9.751728323245048,0.7605326827175914
1700006762893854000,11.90485400390625,0.7312927789036184,-9.748848968416452,0.7717191895771771
1700006762903799000,11.914799072265625,0.758726875404641,-9.74570131804049,0.7848608490925282
1700006762913744000,11.924743896484374,0.7850296297881751,-9.742394093188643,0.7999105341862887
1700006762923689200,11.934689208984375,0.8104679493620991,-9.738923202207683,0.8166281524922698
1700006762933634000,11.944634033203124,0.834820081134513,-9.735429514873028,0.8335816984459757
1700006762943579000,11.954578857421875,0.8594145702954381,-9.7318434730798,0.8502866764660925
1700006762953524200,11.964524169921875,0.8851577180348336,-9.728031221315264,0.8673481397736817
1700006762963470000,11.974469970703124,0.9117162007451057,-9.724034845155478,0.8844779921423643
1700006762973415000,11.984414794921875,0.9408625079914927,-9.719657945245503,0.9018899493880569
1700006762983359500,11.994359375,0.9722233494821936,-9.714755560156702,0.9212376239366828
1700006762993304600,12.0043046875,1.004019002193585,-9.709391987296938,0.9434232983902097
1700006763003249700,12.014249755859375,1.0336281046461313,-9.703773562893272,0.968914444129914
1700006763013194500,12.024194580078126,1.0573507063433527,-9.698393623420596,0.9967877357657998
1700006763023140600,12.034140625,1.0759042348396033,-9.693262105751037,1.0264089670475571
1700006763033085700,12.044085693359374,1.0932759331401436,-9.687975689780712,1.0574893841616808
1700006763043030500,12.054030517578125,1.1093785613529383,-9.682567693257331,1.0897441788174211
1700006763052975600,12.0639755859375,1.123236406313628,-9.677199444222449,1.1227313063357025
1700006763062920400,12.07392041015625,1.135351864586398,-9.672024087411165,1.1546995391350239
1700006763072865500,12.083865478515625,1.1471672439340501,-9.66716320337653,1.1833636888876558
1700006763082810600,12.093810546875,1.1589421451408415,-9.66297042786181,1.2059209000673143
1700006763092756500,12.103756591796875,1.169871389303729,-9.659727500417828,1.2212401958826928
1700006763102701600,12.11370166015625,1.1799680550999938,-9.657465985226631,1.229380174653232
1700006763112646700,12.123646728515626,1.1898580193430184,-9.656136197927594,1.2303206703737377
1700006763122591500,12.133591552734375,1.1987526889383793,-9.655653382846712,1.2254450271613895
1700006763132536600,12.14353662109375,1.205956775098294,-9.655944474747777,1.2160497145675122
1700006763142481700,12.153481689453125,1.210375614453852,-9.656941084569691,1.2036776511851697
1700006763152427800,12.163427734375,1.2115069565713406,-9.658578914904593,1.1893367719478904
1700006763162372600,12.17337255859375,1.2088091688547282,-9.66082523252666,1.1737248498614876
1700006763172317400,12.1833173828125,1.201983049161732,-9.663782913288474,1.1562448688808828
1700006763182262800,12.1932626953125,1.190938142729923,-9.667391166913509,1.1373770868036894
1700006763192207600,12.20320751953125,1.1772335155695677,-9.671350718194246,1.117788735366985
1700006763202152400,12.21315234375,1.1625658885959536,-9.675433019071816,1.0976387314595282
1700006763212098600,12.2230986328125,1.148799886637181,-9.679376788261532,1.0771817804947494
1700006763222043400,12.23304345703125,1.1358149520535021,-9.683195469766854,1.0564243122134358
1700006763231988700,12.24298876953125,1.122173160996288,-9.687001291790605,1.0359138044305145
1700006763241933600,12.25293359375,1.107000287914276,-9.690928109845519,1.0153018090344965
1700006763251878400,12.26287841796875,1.090435887408629,-9.695025023770333,0.9938946446727961
1700006763261823700,12.27282373046875,1.0730082942023873,-9.69922364450395,0.9716651310775428
1700006763271769600,12.28276953125,1.0555686452321709,-9.703387193924188,0.9489270834382623
1700006763281714700,12.292714599609376,1.0393368376817553,-9.707349667814373,0.9260346489548683
1700006763291659500,12.302659423828125,1.0250630323313177,-9.711120418524741,0.9020970162674784
1700006763301604600,12.3126044921875,1.0126458876982332,-9.714695354402064,0.8772813586365431
1700006763311549700,12.3225498046875,1.0018999642129987,-9.718036481523514,0.8522594378437847
1700006763321495600,12.33249560546875,0.9909973157960921,-9.7212338162601,0.8282208289999514
1700006763331440600,12.342440673828126,0.9779021257709711,-9.72445511639416,0.8056533156219869
1700006763341385700,12.3523857421875,0.9611072775103151,-9.727789813774823,0.7853576926987618
1700006763351330600,12.36233056640625,0.9401543597221373,-9.731287592762708,0.7671792080599814
1700006763361275600,12.372275634765625,0.9149946378938854,-9.735006905546784,0.7502079803191125
1700006763371220500,12.382220458984374,0.8869267735339701,-9.738841953665018,0.7339468736089766
1700006763381165600,12.39216552734375,0.8574962425187229,-9.7426799243927,0.7178229834124445
1700006763391111700,12.402111572265625,0.8281324931293725,-9.746436062055826,0.7011074109330773
1700006763401056500,12.412056396484376,0.7988586870457977,-9.750111535698174,0.6837468916136771
1700006763411001600,12.422001708984375,0.7700891772225499,-9.753651400262116,0.6660776716712862
1700006763420946700,12.43194677734375,0.7416160199973731,-9.757055071225762,0.6482892823286354
1700006763430891500,12.4418916015625,0.714156058402732,-9.760318456935883,0.6297236980684101
1700006763440836600,12.451836669921875,0.6883471519507467,-9.763377844506502,0.6107523460188881
1700006763450782500,12.461782470703126,0.6643800739731639,-9.766227388718724,0.5914428480561822
1700006763460727800,12.471727783203125,0.6422095240235328,-9.768871181225776,0.5719280002471059
1700006763470672600,12.481672607421874,0.6224650321770459,-9.771315651768445,0.5516496207196265
1700006763480617500,12.491617431640625,0.6065687036586925,-9.773498841026425,0.5302681753210723
1700006763490562600,12.5015625,0.5939445652114227,-9.775471602404117,0.5076886792443692
1700006763500507600,12.511507568359375,0.5854900405989959,-9.777187174150347,0.48393992019258436
1700006763510453800,12.521453857421875,0.5807972431402653,-9.778623928955197,0.4599759474875405
1700006763520398600,12.531398681640624,0.5783837157251313,-9.779860192751883,0.4361214630389586
1700006763530343400,12.541343505859375,0.5792394557716325,-9.780834590741991,0.41247967149298637
1700006763540288800,12.551288818359374,0.5823601085428148,-9.781597391808033,0.3893399111850187
1700006763550233600,12.561233642578125,0.5846833638586103,-9.782333889389038,0.3667202657610178
1700006763560178400,12.571178466796875,0.586824357942678,-9.783009596693516,0.34460403981450943
1700006763570124500,12.58112451171875,0.5897489036198705,-9.78357833649218,0.32277134351711717
1700006763580069600,12.591069580078125,0.5952891847534105,-9.783929049625993,0.30123021404482425
1700006763590014700,12.6010146484375,0.6040703840369358,-9.784020235040783,0.2800231570987962
