time,seconds_elapsed,z,y,x
1700006751029262600,0.0402626953125,-0.11710533499717712,0.09202752262353897,-0.024984518066048622
1700006751039207400,0.05020751953125,-0.11476148664951324,0.07143329828977585,-0.10259169340133667
1700006751049152500,0.060152587890625,-0.10491686314344406,0.045500248670578,-0.1839657872915268
1700006751059097600,0.07009765625,-0.10278527438640594,0.007194674573838711,-0.2519746720790863
1700006751069043500,0.08004345703125,-0.11445336043834686,-0.04120403528213501,-0.3069634735584259
1700006751078988500,0.089988525390625,-0.12769699096679688,-0.08472594618797302,-0.337024450302124
1700006751088933400,0.099933349609375,-0.1354665458202362,-0.1190568208694458,-0.34013527631759644
1700006751098878700,0.109878662109375,-0.136790931224823,-0.14258956909179688,-0.32698193192481995
1700006751108823600,0.119823486328125,-0.12769488990306854,-0.14741308987140656,-0.3074524402618408
1700006751118768400,0.129768310546875,-0.11954321712255478,-0.12592430412769318,-0.2952501177787781
1700006751128714500,0.139714599609375,-0.11480012536048889,-0.08840135484933853,-0.2894274890422821
1700006751138659600,0.14965966796875,-0.11928408592939377,-0.05307372659444809,-0.29111248254776
1700006751148604700,0.159604736328125,-0.12686853110790253,-0.02815921977162361,-0.2835421860218048
1700006751158549500,0.169549560546875,-0.12564852833747864,-0.007051272317767143,-0.2531709671020508
1700006751168494300,0.179494384765625,-0.10632086545228958,-0.0004984168335795403,-0.20116007328033447
1700006751178440400,0.1894404296875,-0.07472804933786392,-0.0029975278303027153,-0.13868524134159088
1700006751188385500,0.199385498046875,-0.03418988734483719,0.0006194580346345901,-0.08262287825345993
1700006751198330400,0.209330322265625,-0.00015202630311250687,-0.0022599510848522186,-0.03627535700798035
1700006751208275500,0.219275390625,0.020286519080400467,-0.03507000207901001,-0.01312338002026081
1700006751218220500,0.229220458984375,0.021790672093629837,-0.095573291182518,0.0017130905762314796
1700006751228165600,0.23916552734375,0.018831860274076462,-0.15551701188087463,0.021128853783011436
1700006751238111500,0.249111572265625,0.004525092896074057,-0.20055346190929413,0.04180191084742546
1700006751248056300,0.259056396484375,-0.006496037356555462,-0.21502549946308136,0.06554602831602097
1700006751258001700,0.269001708984375,-0.013550749979913235,-0.1788959950208664,0.08090421557426453
1700006751267946500,0.278946533203125,-0.014652767218649387,-0.10718186944723129,0.07447214424610138
1700006751277891300,0.288891357421875,-0.009563199244439602,-0.022175364196300507,0.04131978377699852
1700006751287837400,0.29883740234375,-0.01344829611480236,0.06359925121068954,-0.01859617792069912
1700006751297782500,0.308782470703125,-0.01675674133002758,0.1330196112394333,-0.09375137835741043
1700006751307727600,0.3187275390625,-0.0202811099588871,0.1677728295326233,-0.16111189126968384
1700006751317672400,0.32867236328125,-0.024632714688777924,0.16756084561347961,-0.2044694870710373
1700006751327617300,0.3386171875,-0.03458795323967934,0.13924679160118103,-0.21850332617759705
1700006751337563400,0.3485634765625,-0.04189247265458107,0.11027426272630692,-0.22040587663650513
1700006751347508500,0.358508544921875,-0.03896767646074295,0.10228275507688522,-0.2142106294631958
1700006751357453600,0.36845361328125,-0.044410645961761475,0.09005538374185562,-0.20171748101711273
1700006751367398400,0.3783984375,-0.052896805107593536,0.07829823344945908,-0.19464705884456635
1700006751377343500,0.388343505859375,-0.05483265593647957,0.06921125948429108,-0.17855916917324066
1700006751387288600,0.39828857421875,-0.04663025587797165,0.06291715055704117,-0.16057650744915009
1700006751397234400,0.408234375,-0.02913461998105049,0.0571490079164505,-0.1379992961883545
1700006751407179500,0.418179443359375,-0.012761197984218597,0.04420939087867737,-0.1241549700498581
1700006751417124600,0.42812451171875,-0.00037803221493959427,0.01142907328903675,-0.12148940563201904
1700006751427069400,0.4380693359375,0.0007784636691212654,-0.03442569077014923,-0.13434188067913055
1700006751437014500,0.4480146484375,-0.008658447302877903,-0.09901001304388046,-0.14478813111782074
1700006751446960400,0.45796044921875,-0.030467605218291283,-0.14132824540138245,-0.1493510603904724
1700006751456905700,0.46790576171875,-0.04410512000322342,-0.16943711042404175,-0.12899838387966156
1700006751466850600,0.4778505859375,-0.04523112624883652,-0.19533546268939972,-0.09664444625377655
1700006751476795400,0.48779541015625,-0.04325106739997864,-0.22367070615291595,-0.07028740644454956
1700006751486740500,0.497740478515625,-0.04124351590871811,-0.26896730065345764,-0.05095696076750755
1700006751496685600,0.507685546875,-0.02807019092142582,-0.3354690968990326,-0.05370667204260826
1700006751506631700,0.517631591796875,-0.0182720385491848,-0.4146462678909302,-0.08250709623098373
1700006751516576500,0.527576416015625,-0.027120128273963928,-0.47738954424858093,-0.11774657666683197
1700006751526521300,0.537521240234375,-0.049288757145404816,-0.5115180015563965,-0.1400635838508606
1700006751536466700,0.547466796875,-0.09691166877746582,-0.5204119086265564,-0.15648330748081207
1700006751546411500,0.55741162109375,-0.16896042227745056,-0.5142934322357178,-0.14274610579013824
1700006751556357600,0.567357666015625,-0.24543043971061707,-0.5043356418609619,-0.1057172492146492
1700006751566302500,0.577302490234375,-0.3115333318710327,-0.4737846255302429,-0.03823450580239296
1700006751576247600,0.58724755859375,-0.3596814274787903,-0.4007575511932373,0.0629645511507988
1700006751586192600,0.597192626953125,-0.3772912621498108,-0.2717053294181824,0.16997690498828888
1700006751596137500,0.607137451171875,-0.37021976709365845,-0.12260504066944122,0.2599637806415558
1700006751606082600,0.61708251953125,-0.33644092082977295,0.012778726406395435,0.32153305411338806
1700006751616028700,0.627028564453125,-0.29325270652770996,0.08495012670755386,0.3344382047653198
1700006751625973500,0.636973388671875,-0.23758283257484436,0.04512115567922592,0.293864905834198
1700006751635918600,0.646918701171875,-0.14822179079055786,-0.083315908908844,0.21839919686317444
1700006751645863400,0.656863525390625,-0.059953439980745316,-0.21125267446041107,0.10677067935466766
1700006751655808500,0.66680859375,0.0201168954372406,-0.32310596108436584,-0.028390338644385338
1700006751665754600,0.676754638671875,0.09454341232776642,-0.4016924500465393,-0.18828228116035461
1700006751675699500,0.686699462890625,0.1671116203069687,-0.3923841714859009,-0.3459901511669159
1700006751685644500,0.69664453125,0.22039136290550232,-0.29459428787231445,-0.466508686542511
1700006751695589600,0.706589599609375,0.2573877274990082,-0.1323782503604889,-0.5156538486480713
1700006751705534500,0.716534423828125,0.26171648502349854,0.046114232391119,-0.49456000328063965
1700006751715479600,0.7264794921875,0.2290983647108078,0.20698221027851105,-0.4144470691680908
1700006751725425400,0.73642529296875,0.16990260779857635,0.3526719808578491,-0.29432615637779236
1700006751735370500,0.74637060546875,0.09085172414779663,0.4395376443862915,-0.16047623753547668
1700006751745315600,0.756315673828125,0.008052926510572433,0.46116307377815247,-0.03203094005584717
1700006751755260400,0.766260498046875,-0.050123825669288635,0.43258893489837646,0.07741007208824158
1700006751765205500,0.77620556640625,-0.08636850118637085,0.39104676246643066,0.16839584708213806
1700006751775151600,0.786151611328125,-0.11098276823759079,0.3380511701107025,0.25505325198173523
1700006751785096400,0.796096435546875,-0.13910162448883057,0.2971763610839844,0.32527703046798706
1700006751795041500,0.80604150390625,-0.16551537811756134,0.26622751355171204,0.39311277866363525
1700006751804986400,0.815986328125,-0.18856632709503174,0.2372955083847046,0.4489305317401886
1700006751814931700,0.825931640625,-0.20454849302768707,0.1891961693763733,0.4749578535556793
1700006751824876500,0.83587646484375,-0.20974847674369812,0.11107438802719116,0.4615584909915924
1700006751834822400,0.845822509765625,-0.1996242105960846,0.04133898392319679,0.4168485403060913
1700006751844767500,0.855767578125,-0.16500039398670197,-0.01275643240660429,0.36090075969696045
1700006751854712600,0.865712646484375,-0.09804877638816833,-0.046759940683841705,0.3120189607143402
1700006751864657400,0.875657470703125,-0.03117537871003151,-0.05022521689534187,0.26614391803741455
1700006751874602500,0.8856025390625,0.03631497919559479,-0.03793472796678543,0.24034430086612701
1700006751884548400,0.89554833984375,0.08577558398246765,-0.04026632010936737,0.2261333167552948
1700006751894493700,0.90549365234375,0.1230558454990387,-0.039695337414741516,0.21375015377998352
1700006751904438500,0.9154384765625,0.1361219435930252,-0.03160853683948517,0.20238181948661804
1700006751914383400,0.92538330078125,0.1223217099905014,-0.012076914310455322,0.19704192876815796
1700006751924328400,0.935328369140625,0.0961192324757576,0.025438349694013596,0.19490492343902588
1700006751934273500,0.9452734375,0.06415969878435135,0.08479594439268112,0.22345933318138123
1700006751944219600,0.9552197265625,0.023114604875445366,0.14321322739124298,0.25959888100624084
1700006751954164500,0.96516455078125,-0.02121823839843273,0.20155350863933563,0.302961528301239
1700006751964109300,0.975109375,-0.05431130528450012,0.26195359230041504,0.3591814935207367
1700006751974055200,0.98505517578125,-0.08163347840309143,0.33151674270629883,0.41864800453186035
1700006751984000300,0.995000244140625,-0.0975734069943428,0.39655864238739014,0.4836045801639557
1700006751993946400,1.0049462890625,-0.10080648213624954,0.4463099539279938,0.5350105166435242
1700006752003891200,1.01489111328125,-0.09770481288433075,0.4486343562602997,0.5714713931083679
1700006752013836300,1.024836181640625,-0.08936379849910736,0.41483670473098755,0.6219058036804199
1700006752023781400,1.034781494140625,-0.06993359327316284,0.3619363307952881,0.7064785957336426
1700006752033726200,1.044726318359375,-0.06793675571680069,0.267872154712677,0.795944333076477
1700006752043671300,1.05467138671875,-0.09055586159229279,0.14051568508148193,0.8820868730545044
1700006752053617200,1.0646171875,-0.1277162879705429,0.016973774880170822,0.928963840007782
1700006752063562200,1.074562255859375,-0.1684100478887558,-0.07855238765478134,0.9040995836257935
1700006752073507300,1.08450732421875,-0.1832294762134552,-0.09684830158948898,0.8112210631370544
1700006752083452200,1.0944521484375,-0.15108871459960938,-0.060709916055202484,0.6733425855636597
1700006752093397500,1.1043974609375,-0.10451216250658035,-0.0005895867943763733,0.511538028717041
1700006752103343400,1.11434326171875,-0.04060205817222595,0.050919514149427414,0.35695233941078186
1700006752113288200,1.1242880859375,0.014972789213061333,0.07237847149372101,0.2475176900625229
1700006752123233300,1.1342333984375,0.045448847115039825,0.07667607069015503,0.21467195451259613
1700006752133178000,1.14417822265625,0.06089358031749725,0.10861776024103165,0.2930743396282196
1700006752143123200,1.154123291015625,0.097256138920784,0.17820695042610168,0.4676227271556854
1700006752153068300,1.164068359375,0.1706363409757614,0.28819817304611206,0.7120165228843689
1700006752163014100,1.17401416015625,0.2621075510978699,0.41956329345703125,0.9988268613815308
1700006752172959200,1.183959228515625,0.31727999448776245,0.4769839942455292,1.2759935855865479
1700006752182904300,1.193904296875,0.33715954422950745,0.4507036507129669,1.574315071105957
1700006752192849200,1.20384912109375,0.38479363918304443,0.36655548214912415,1.9519060850143433
1700006752202794200,1.213794189453125,0.4855215549468994,0.15443773567676544,2.4078617095947266
1700006752212740000,1.223739990234375,0.6267068982124329,-0.16302357614040375,2.981536865234375
1700006752222685400,1.233685546875,0.7776159644126892,-0.467970073223114,3.6232588291168213
1700006752232630300,1.24363037109375,0.9073209762573242,-0.865449845790863,4.1862711906433105
1700006752242575000,1.2535751953125,0.9945327043533325,-1.3488689661026,4.595878601074219
1700006752252520400,1.2635205078125,1.0376156568527222,-1.7733230590820312,4.868088722229004
1700006752262466300,1.27346630859375,0.9905772805213928,-2.0358989238739014,5.049173831939697
1700006752272411400,1.283411376953125,0.8497381210327148,-2.003744125366211,5.197626113891602
1700006752282356200,1.293356201171875,0.6261360049247742,-1.6891783475875854,5.3525238037109375
1700006752292301000,1.303301025390625,0.4151531755924225,-1.2621431350708008,5.45458984375
1700006752302246400,1.313246337890625,0.3240998387336731,-0.7438511848449707,5.403783798217773
1700006752312191200,1.323191162109375,0.5296284556388855,-0.25704526901245117,5.124556064605713
1700006752322137300,1.333137451171875,0.8575785756111145,0.13990025222301483,4.679996967315674
1700006752332082200,1.343082275390625,1.0288642644882202,0.6494657397270203,4.196113586425781
1700006752342027300,1.35302734375,1.028576135635376,1.1628098487854004,3.7594010829925537
1700006752351972400,1.362972412109375,0.9255226850509644,1.4838125705718994,3.4268670082092285
1700006752361917200,1.372917236328125,0.7431064248085022,1.5999056100845337,3.1963071823120117
1700006752371862300,1.3828623046875,0.5519841909408569,1.618129014968872,3.0104784965515137
1700006752381808400,1.392808349609375,0.4151148498058319,1.6420789957046509,2.861161470413208
1700006752391753200,1.402753173828125,0.3326713740825653,1.5998618602752686,2.716001033782959
1700006752401698300,1.4126982421875,0.25719305872917175,1.4702473878860474,2.5579748153686523
1700006752411643400,1.422643310546875,0.1388925313949585,1.3752667903900146,2.3979005813598633
1700006752421588200,1.432588134765625,0.007552594877779484,1.3103691339492798,2.204920530319214
1700006752431534300,1.442534423828125,-0.1274036318063736,1.3842915296554565,2.0113911628723145
1700006752441479200,1.452479248046875,-0.2339153289794922,1.46700119972229,1.846276044845581
1700006752451424300,1.46242431640625,-0.2437325417995453,1.423220157623291,1.7361383438110352
1700006752461369300,1.472369384765625,-0.17086927592754364,1.1833322048187256,1.706006646156311
1700006752471314200,1.482314208984375,-0.11437802761793137,0.858053982257843,1.7523094415664673
1700006752481259300,1.49225927734375,-0.17844504117965698,0.8000818490982056,1.8685698509216309
1700006752491205000,1.502205078125,-0.447316974401474,1.0160038471221924,2.014508008956909
1700006752501150500,1.512150390625,-0.8653305768966675,1.22502863407135,2.025447368621826
1700006752511095300,1.52209521484375,-1.1676254272460938,0.9969360828399658,1.8926101922988892
1700006752521040100,1.5320400390625,-1.2556248903274536,0.4769986569881439,1.7987169027328491
1700006752530985500,1.5419853515625,-1.2126630544662476,-0.3421470820903778,2.3330488204956055
1700006752540931300,1.551931396484375,-1.3546831607818604,-0.5455327033996582,2.4809210300445557
1700006752550876400,1.56187646484375,-1.4510406255722046,-0.4025305211544037,2.386939287185669
1700006752560821200,1.5718212890625,-1.3666558265686035,-0.12461763620376587,2.2559118270874023
1700006752570766300,1.581766357421875,-1.2404015064239502,0.060505885630846024,2.1486546993255615
1700006752580711400,1.59171142578125,-1.1051028966903687,0.19087129831314087,1.620615005493164
1700006752590656300,1.60165625,-0.8437303304672241,0.2974659204483032,0.3443067669868469
1700006752600602000,1.61160205078125,-0.6164401173591614,-0.18865329027175903,-1.0008864402770996
1700006752610547200,1.621547119140625,-0.5881940722465515,-0.44080859422683716,-1.517897605895996
1700006752620492300,1.6314921875,-0.5575535297393799,-0.32979440689086914,-1.3246283531188965
1700006752630437400,1.641437255859375,-0.43038809299468994,-0.19250044226646423,-0.7683640718460083
1700006752640382200,1.65138232421875,-0.2243516445159912,-0.09058541059494019,-0.05891279876232147
1700006752650328000,1.661328125,-0.10277408361434937,0.03379832208156586,0.7052367925643921
1700006752660273400,1.6712734375,-0.1035211980342865,0.20581932365894318,1.3819520473480225
1700006752670218200,1.68121826171875,-0.15322910249233246,0.4665324091911316,1.7163591384887695
1700006752680163300,1.691163330078125,-0.19736620783805847,0.7455366253852844,1.4700199365615845
1700006752690108400,1.7011083984375,-0.11112931370735168,0.6967123746871948,0.7841176986694336
1700006752700053200,1.71105322265625,0.002866192255169153,0.5397096276283264,0.26406970620155334
1700006752709999400,1.720999267578125,0.07470149546861649,0.25207385420799255,0.19045968353748322
1700006752719944200,1.730944091796875,0.08978524059057236,0.0840095654129982,0.36994004249572754
1700006752729889300,1.74088916015625,0.1219482421875,0.07909096777439117,0.5835835933685303
1700006752739834400,1.75083447265625,0.1250847578048706,0.14823128283023834,0.6934698224067688
1700006752749779200,1.760779296875,0.09885048866271973,0.23289476335048676,0.7062783241271973
1700006752759725300,1.770725341796875,0.08682624250650406,0.27884620428085327,0.6530143618583679
1700006752769670100,1.780670166015625,0.06230279058218002,0.27514469623565674,0.5192552208900452
1700006752779615200,1.790615234375,0.08053572475910187,0.27136844396591187,0.376271516084671
1700006752789560300,1.800560302734375,0.13594651222229004,0.2834448218345642,0.31223902106285095
1700006752799505200,1.810505126953125,0.20415540039539337,0.28551244735717773,0.40715593099594116
1700006752809450200,1.8204501953125,0.21347779035568237,0.2598707675933838,0.5328728556632996
1700006752819396400,1.830396240234375,0.21704606711864471,0.22334779798984528,0.5734400153160095
1700006752829341200,1.840341064453125,0.19786091148853302,0.11053362488746643,0.4731084108352661
1700006752839286300,1.850286376953125,0.14177671074867249,-0.03521539270877838,0.20423223078250885
1700006752849231400,1.8602314453125,0.18626561760902405,0.13367189466953278,0.12162125110626221
1700006752859176200,1.87017626953125,0.40389755368232727,0.13084815442562103,0.10156071931123734
1700006752869122300,1.880122314453125,0.5618621706962585,0.10492093861103058,0.03143329545855522
1700006752879067100,1.890067138671875,0.6327022910118103,0.05059594288468361,-0.07147678732872009
1700006752889012200,1.90001220703125,0.6439927816390991,-0.009410401806235313,-0.17055624723434448
1700006752898957300,1.909957275390625,0.6307733058929443,-0.025028537958860397,-0.35623401403427124
1700006752908902100,1.919902099609375,0.4643779397010803,0.017717063426971436,-0.6449025869369507
1700006752918847200,1.92984716796875,0.23995371162891388,-0.1711292564868927,-0.8074219226837158
1700006752928793000,1.93979296875,-0.029837293550372124,-0.48265573382377625,-0.833026647567749
1700006752938738400,1.949738525390625,-0.024860739707946777,-0.546859085559845,-0.9150734543800354
1700006752948683300,1.959683349609375,0.14549635350704193,-0.6263222098350525,-0.9834423661231995
1700006752958628000,1.969628173828125,0.3171379864215851,-0.7813082337379456,-0.9691435694694519
1700006752968572700,1.97957275390625,0.3680834472179413,-0.8758786916732788,-0.8865147233009338
1700006752978517500,1.989517578125,0.3303195536136627,-0.8772652745246887,-0.8234145641326904
1700006752988463600,1.999463623046875,0.2628752887248993,-0.8604292869567871,-0.7318151593208313
1700006752998408400,2.009408447265625,0.1780196726322174,-0.7796164155006409,-0.6081153750419617
1700006753008353800,2.019353759765625,0.10896896570920944,-0.7010251879692078,-0.5224571824073792
1700006753018298600,2.029298583984375,0.05469200760126114,-0.7050312161445618,-0.509294331073761
1700006753028243500,2.039243408203125,-0.026090452447533607,-0.7323331236839294,-0.5153966546058655
1700006753038189600,2.049189453125,-0.10942111909389496,-0.7176088094711304,-0.5471628904342651
1700006753048134700,2.059134765625,-0.22154393792152405,-0.703895628452301,-0.5478755831718445
1700006753058079500,2.06907958984375,-0.29463428258895874,-0.724861204624176,-0.53922438621521
1700006753068024600,2.079024658203125,-0.3355447053909302,-0.761034369468689,-0.5401408076286316
1700006753077969700,2.0889697265625,-0.3570530116558075,-0.7525772452354431,-0.5313832759857178
1700006753087914800,2.098914794921875,-0.3856031596660614,-0.7661612629890442,-0.5390145778656006
1700006753097860600,2.108860595703125,-0.36918482184410095,-0.797294557094574,-0.5504009127616882
1700006753107805400,2.118805419921875,-0.2838377058506012,-0.809170663356781,-0.5599949955940247
1700006753117750500,2.12875048828125,-0.2446034997701645,-0.8496332168579102,-0.5931016802787781
1700006753127695600,2.138695556640625,-0.2348075807094574,-0.8517802357673645,-0.6548414826393127
1700006753137640700,2.148640625,-0.2748182713985443,-0.8551650047302246,-0.6884085536003113
1700006753147585500,2.15858544921875,-0.3016781210899353,-0.8393269181251526,-0.6937811970710754
1700006753157531400,2.168531494140625,-0.31399422883987427,-0.769778847694397,-0.7041977047920227
1700006753167476700,2.178476806640625,-0.274673730134964,-0.7001297473907471,-0.7317382097244263
1700006753177421600,2.188421630859375,-0.24370864033699036,-0.6487774848937988,-0.7552081346511841
1700006753187366400,2.198366455078125,-0.2140761911869049,-0.6078444719314575,-0.7503923773765564
1700006753197311700,2.208311767578125,-0.15912280976772308,-0.5818182826042175,-0.7492415308952332
1700006753207257600,2.218257568359375,-0.11904676258563995,-0.5612890720367432,-0.725557804107666
1700006753217202700,2.22820263671875,-0.11796732246875763,-0.6074186563491821,-0.6216807961463928
1700006753227147500,2.2381474609375,-0.14744718372821808,-0.5661327242851257,-0.4773702025413513
1700006753237092600,2.248092529296875,-0.1883108913898468,-0.5189765691757202,-0.347808301448822
1700006753247037700,2.25803759765625,-0.2049013376235962,-0.4753609299659729,-0.23272563517093658
1700006753256983600,2.267983642578125,-0.20411047339439392,-0.45899608731269836,-0.11469613015651703
1700006753266928600,2.2779287109375,-0.16767390072345734,-0.43191757798194885,0.0031602000817656517
1700006753276873500,2.28787353515625,-0.10518550127744675,-0.44638946652412415,0.1094573438167572
1700006753286818600,2.297818603515625,-0.07811447232961655,-0.4963935315608978,0.22582203149795532
1700006753296763600,2.307763671875,-0.08113415539264679,-0.5203729867935181,0.33581140637397766
1700006753306708500,2.31770849609375,-0.10892610251903534,-0.5675053596496582,0.3401148319244385
1700006753316654600,2.327654541015625,-0.12007655948400497,-0.5502387285232544,0.2154821902513504
1700006753326599700,2.337599609375,-0.1469673067331314,-0.512772262096405,0.055557768791913986
1700006753336544500,2.34754443359375,-0.4226897656917572,0.27128830552101135,0.35033687949180603
1700006753346489600,2.357489501953125,-0.35506466031074524,-0.31850120425224304,0.15276044607162476
1700006753356434700,2.3674345703125,-0.54010009765625,-0.33767691254615784,0.001286064274609089
1700006753366379500,2.377379638671875,-0.6200149059295654,-0.3792078495025635,-0.011756233870983124
1700006753376325600,2.38732568359375,-0.61241215467453,-0.2828420400619507,-0.08574138581752777
1700006753386270500,2.3972705078125,-0.5448277592658997,-0.19665522873401642,-0.10172754526138306
1700006753396215600,2.407215576171875,-0.4822942316532135,-0.18524037301540375,-0.08644388616085052
1700006753406160600,2.41716064453125,-0.42991918325424194,-0.08775242418050766,0.030950918793678284
1700006753416105500,2.42710546875,-0.37426769733428955,0.03213353827595711,0.11938034743070602
1700006753426051600,2.437051513671875,-0.33650460839271545,0.16340553760528564,0.048765309154987335
1700006753435996400,2.446996337890625,-0.32114720344543457,0.1896359771490097,-0.0011899927631020546
1700006753445941800,2.456941650390625,-0.28701215982437134,0.200239896774292,-0.025232743471860886
1700006753455886600,2.466886474609375,-0.24989256262779236,0.21008583903312683,-0.09422437846660614
1700006753465831400,2.47683154296875,-0.22612011432647705,0.23829162120819092,-0.16374540328979492
1700006753475776800,2.48677685546875,-0.1790381819009781,0.3177200257778168,-0.21099311113357544
1700006753485722600,2.49672265625,-0.06855373829603195,0.4327182471752167,-0.2071957141160965
1700006753495667700,2.506667724609375,-0.0314665213227272,0.42231759428977966,-0.18904811143875122
1700006753505612500,2.516612548828125,0.06145569682121277,0.42160654067993164,-0.14407290518283844
1700006753515557600,2.5265576171875,0.11907088756561279,0.4147001802921295,-0.13942670822143555
1700006753525502700,2.536502685546875,0.14036551117897034,0.3934585452079773,-0.1595173329114914
1700006753535447600,2.546447509765625,0.14008991420269012,0.32730230689048767,-0.21978852152824402
1700006753545393700,2.5563935546875,0.14289529621601105,0.2313760370016098,-0.2933748662471771
1700006753555338500,2.56633837890625,0.16954727470874786,0.139517679810524,-0.3461853861808777
1700006753565283600,2.57628369140625,0.21208249032497406,0.007305838167667389,-0.38095322251319885
1700006753575228700,2.586228759765625,0.2077265828847885,-0.05082632228732109,-0.33134108781814575
1700006753585173500,2.596173583984375,0.2580012083053589,-0.12112125754356384,-0.30239731073379517
1700006753595119600,2.60611962890625,0.28783780336380005,-0.1873038113117218,-0.30072081089019775
1700006753605064700,2.616064697265625,0.30732864141464233,-0.2648286819458008,-0.2757185101509094
1700006753615009500,2.626009521484375,0.3075985312461853,-0.28275105357170105,-0.27020490169525146
1700006753624954600,2.63595458984375,0.310308575630188,-0.2714448571205139,-0.27004989981651306
1700006753634899700,2.645899658203125,0.3113957345485687,-0.25131452083587646,-0.2695445716381073
1700006753644844500,2.655844482421875,0.30762070417404175,-0.22832663357257843,-0.26650455594062805
1700006753654790700,2.665790771484375,0.30044886469841003,-0.20280630886554718,-0.28176790475845337
1700006753664735500,2.675735595703125,0.2965103089809418,-0.16728240251541138,-0.2820819020271301
1700006753674680800,2.685680908203125,0.3056592047214508,-0.11593043059110641,-0.2635379731655121
1700006753684625700,2.695625732421875,0.2984449565410614,-0.0529666431248188,-0.24408571422100067
1700006753694570500,2.705570556640625,0.27506813406944275,-0.01965583860874176,-0.24082142114639282
1700006753704515600,2.715515625,0.25103896856307983,-0.0625859946012497,-0.23640643060207367
1700006753714461400,2.72546142578125,0.23448389768600464,-0.13800524175167084,-0.22747446596622467
1700006753724406500,2.735406494140625,0.22583980858325958,-0.19475694000720978,-0.2137317657470703
1700006753734351600,2.7453515625,0.22539359331130981,-0.22972114384174347,-0.17693734169006348
1700006753744296400,2.75529638671875,0.22914518415927887,-0.22826199233531952,-0.12127114832401276
1700006753754241800,2.76524169921875,0.23593154549598694,-0.1969427466392517,-0.06569772958755493
1700006753764187600,2.775187744140625,0.22700382769107819,-0.16765116155147552,-0.03157438337802887
1700006753774132500,2.785132568359375,0.2157951146364212,-0.1452835500240326,-0.036118000745773315
1700006753784077600,2.79507763671875,0.2253928780555725,-0.15286369621753693,-0.09802131354808807
1700006753794022700,2.805022705078125,0.24361552298069,-0.17435236275196075,-0.16857312619686127
1700006753803967700,2.8149677734375,0.252569317817688,-0.20216161012649536,-0.2132101058959961
1700006753813912600,2.82491259765625,0.24099116027355194,-0.21847307682037354,-0.22919070720672607
1700006753823858400,2.8348583984375,0.20866252481937408,-0.2239898145198822,-0.2634719908237457
1700006753833803800,2.8448037109375,0.1627071350812912,-0.2107728123664856,-0.33917027711868286
1700006753843748600,2.85474853515625,0.10917731374502182,-0.18319177627563477,-0.4284293055534363
1700006753853693400,2.864693359375,0.05069874972105026,-0.11049488186836243,-0.5360273122787476
1700006753863638500,2.874638427734375,0.026211783289909363,-0.06721851229667664,-0.5829780697822571
1700006753873584400,2.88458447265625,0.027886781841516495,-0.017442714422941208,-0.5461184978485107
1700006753883529700,2.89452978515625,0.049788083881139755,-0.018616102635860443,-0.4534202814102173
1700006753893474600,2.904474609375,0.10766491293907166,-0.059504538774490356,-0.3568120002746582
1700006753903419400,2.91441943359375,0.16916048526763916,-0.11699526757001877,-0.25032496452331543
1700006753913364700,2.92436474609375,0.2887079417705536,-0.17613475024700165,-0.12304424494504929
1700006753923309600,2.9343095703125,0.4575531482696533,-0.1867019087076187,0.053290847688913345
1700006753933255700,2.944255615234375,0.631028950214386,-0.17113113403320312,0.16578884422779083
1700006753943200500,2.954200439453125,0.768281877040863,-0.04201602190732956,0.1456979513168335
1700006753953145600,2.9641455078125,0.6914125084877014,0.12129230052232742,0.07597246766090393
1700006753963090700,2.974090576171875,0.4368513226509094,0.09719682484865189,0.10162856429815292
1700006753973035800,2.984035888671875,0.2845379412174225,0.09156276285648346,0.14933176338672638
1700006753982980600,2.993980712890625,0.2568082809448242,0.1236911341547966,0.17524166405200958
1700006753992926700,3.0039267578125,0.2647880017757416,0.13765747845172882,0.178569033741951
1700006754002871800,3.013871826171875,0.2787882387638092,0.18940483033657074,0.19454534351825714
1700006754012816600,3.023816650390625,0.3105470538139343,0.2459043711423874,0.21232914924621582
1700006754022761700,3.03376171875,0.3824491798877716,0.27197539806365967,0.29304051399230957
1700006754032706800,3.043706787109375,0.4150019586086273,0.29169026017189026,0.37183046340942383
1700006754042653000,3.05365283203125,0.381591796875,0.26514944434165955,0.4300527572631836
1700006754052597800,3.06359765625,0.34630149602890015,0.18866565823554993,0.5048844218254089
1700006754062542600,3.07354248046875,0.3078654110431671,0.10257736593484879,0.5597481727600098
1700006754072488000,3.083488037109375,0.2774372696876526,0.023190714418888092,0.5633957982063293
1700006754082432800,3.093432861328125,0.24420687556266785,-0.034022510051727295,0.5449371933937073
1700006754092377600,3.103377685546875,0.21947738528251648,-0.09171187877655029,0.5137580037117004
1700006754102323700,3.11332373046875,0.20240731537342072,-0.12639209628105164,0.4484170973300934
1700006754112268800,3.123268798828125,0.18866272270679474,-0.17007696628570557,0.3793585002422333
1700006754122214000,3.1332138671875,0.16291235387325287,-0.2207377552986145,0.2983129322528839
1700006754132158700,3.14315869140625,0.15579727292060852,-0.2642552852630615,0.21660174429416656
1700006754142103600,3.153103515625,0.14694146811962128,-0.30820196866989136,0.1497872918844223
1700006754152049000,3.163048828125,0.13107147812843323,-0.3452503979206085,0.09067165106534958
1700006754161994800,3.172994873046875,0.11959084868431091,-0.3653079867362976,0.04138799011707306
1700006754171939800,3.18293994140625,0.10508061200380325,-0.3749246597290039,-0.0008516055531799793
1700006754181884700,3.192884765625,0.09014267474412918,-0.36499959230422974,-0.03443912789225578
1700006754191829800,3.202829833984375,0.06827418506145477,-0.3493056297302246,-0.07081495225429535
1700006754201774800,3.21277490234375,0.05202864110469818,-0.33134180307388306,-0.12788090109825134
1700006754211720700,3.222720703125,0.026135239750146866,-0.32770010828971863,-0.1795014888048172
1700006754221665800,3.232665771484375,-0.02113480493426323,-0.34286442399024963,-0.21424108743667603
1700006754231611000,3.24261083984375,-0.05659816414117813,-0.3708563446998596,-0.2369772493839264
1700006754241555700,3.2525556640625,-0.07842143625020981,-0.4058569073677063,-0.24070781469345093
1700006754251500800,3.262500732421875,-0.09605607390403748,-0.4363339841365814,-0.22653497755527496
1700006754261446000,3.27244580078125,-0.12083625793457031,-0.43227851390838623,-0.19026565551757812
1700006754271391700,3.282391845703125,-0.13911870121955872,-0.40620157122612,-0.13382108509540558
1700006754281336800,3.2923369140625,-0.15738265216350555,-0.38165947794914246,-0.07703849673271179
1700006754291281700,3.30228173828125,-0.17443719506263733,-0.37606003880500793,-0.039587222039699554
1700006754301226800,3.312226806640625,-0.19295522570610046,-0.3917441964149475,-0.02981235645711422
1700006754311171800,3.322171875,-0.20179171860218048,-0.4110621511936188,-0.043810125440359116
1700006754321116700,3.33211669921875,-0.21730144321918488,-0.42056483030319214,-0.06471008062362671
1700006754331062800,3.342062744140625,-0.23748601973056793,-0.4198940098285675,-0.08172791451215744
1700006754341007600,3.352007568359375,-0.25580084323883057,-0.39318251609802246,-0.10877391695976257
1700006754350953000,3.361952880859375,-0.27753907442092896,-0.3594595789909363,-0.14661858975887299
1700006754360897800,3.371897705078125,-0.2959308624267578,-0.31515365839004517,-0.19763943552970886
1700006754370842600,3.381842529296875,-0.30911633372306824,-0.2712864875793457,-0.2596709132194519
1700006754380788700,3.391788818359375,-0.32810547947883606,-0.2267451137304306,-0.32583874464035034
1700006754390733800,3.40173388671875,-0.343276709318161,-0.21174921095371246,-0.39136916399002075
1700006754400679000,3.411678955078125,-0.3640347123146057,-0.22727996110916138,-0.4433588683605194
1700006754410623700,3.421623779296875,-0.3828100264072418,-0.23152893781661987,-0.47982341051101685
1700006754420568800,3.43156884765625,-0.40346601605415344,-0.19744873046875,-0.5295360684394836
1700006754430514000,3.441513916015625,-0.4118562340736389,-0.19128145277500153,-0.537205696105957
1700006754440459800,3.451459716796875,-0.409607470035553,-0.19057011604309082,-0.5335214734077454
1700006754450404900,3.46140478515625,-0.41078856587409973,-0.2477858066558838,-0.5021890997886658
1700006754460349700,3.471349609375,-0.3835894465446472,-0.32152342796325684,-0.4379478394985199
1700006754470294800,3.481294677734375,-0.3567705452442169,-0.3854599893093109,-0.36934834718704224
1700006754480239900,3.491239990234375,-0.3400922417640686,-0.4429648220539093,-0.32183730602264404
1700006754490185700,3.501185791015625,-0.3228691518306732,-0.499437153339386,-0.2822839617729187
1700006754500130600,3.511130615234375,-0.2899154722690582,-0.5604179501533508,-0.21225933730602264
1700006754510076000,3.521075927734375,-0.2583940327167511,-0.6302958130836487,-0.11234645545482635
1700006754520020700,3.531020751953125,-0.21578797698020935,-0.6953920125961304,-0.023053068667650223
1700006754529965800,3.5409658203125,-0.1756780594587326,-0.7506595849990845,0.05273241177201271
1700006754539911000,3.550910888671875,-0.14043113589286804,-0.8103295564651489,0.12247741222381592
1700006754549856800,3.560856689453125,-0.09932846575975418,-0.8427796363830566,0.18512704968452454
1700006754559801900,3.5708017578125,-0.058066777884960175,-0.86299729347229,0.22563159465789795
1700006754569746700,3.58074658203125,-0.04099264740943909,-0.8826255798339844,0.2834916114807129
1700006754579691800,3.59069189453125,-0.043878182768821716,-0.9087738394737244,0.31838247179985046
1700006754589636900,3.600636962890625,-0.054241470992565155,-0.9066028594970703,0.3088855743408203
1700006754599581700,3.610581787109375,-0.07346417009830475,-0.8761142492294312,0.2877669930458069
1700006754609527800,3.62052783203125,-0.09402177482843399,-0.8268426060676575,0.27642104029655457
1700006754619472600,3.63047265625,-0.10428346693515778,-0.7365856766700745,0.2634754180908203
1700006754629417700,3.640417724609375,-0.10432153940200806,-0.6417248249053955,0.2168666422367096
1700006754639362800,3.65036279296875,-0.11066411435604095,-0.5627692937850952,0.19487611949443817
1700006754649307600,3.6603076171875,-0.15242329239845276,-0.46437183022499084,0.1796187460422516
1700006754659253000,3.6702529296875,-0.2114890217781067,-0.36935102939605713,0.1339721530675888
1700006754669198800,3.68019873046875,-0.27202367782592773,-0.27362722158432007,0.07727362960577011
1700006754679143700,3.690143798828125,-0.33394670486450195,-0.20453445613384247,0.031320247799158096
1700006754689088800,3.7000888671875,-0.3829566240310669,-0.1567467749118805,0.02467750757932663
1700006754699033900,3.710033935546875,-0.4283778965473175,-0.07299434393644333,0.029280513525009155
1700006754708978700,3.719978759765625,-0.4550960958003998,0.07568660378456116,0.020615775138139725
1700006754718924800,3.7299248046875,-0.46084877848625183,0.3122083246707916,-0.03002209961414337
1700006754728869600,3.73986962890625,-0.4533142149448395,0.5806939601898193,-0.12080038338899612
1700006754738814700,3.749814697265625,-0.4442000985145569,0.800012469291687,-0.2269132286310196
1700006754748759800,3.759759765625,-0.4228135347366333,0.9674421548843384,-0.3463181257247925
1700006754758704600,3.76970458984375,-0.3836301863193512,1.040766716003418,-0.4339316189289093
1700006754768649700,3.779649658203125,-0.3516695201396942,1.0383257865905762,-0.48393166065216064
1700006754778595600,3.789595703125,-0.31573548913002014,1.011730670928955,-0.49849143624305725
1700006754788541000,3.799541015625,-0.29708239436149597,1.0103399753570557,-0.4873161315917969
1700006754798485800,3.80948583984375,-0.30983173847198486,1.0248461961746216,-0.4427601099014282
1700006754808430600,3.8194306640625,-0.3084002137184143,1.0339668989181519,-0.3680597245693207
1700006754818376000,3.8293759765625,-0.29645514488220215,1.0281481742858887,-0.2928440570831299
1700006754828320800,3.83932080078125,-0.2504410445690155,0.9886943101882935,-0.2389998584985733
1700006754838267000,3.849266845703125,-0.18990953266620636,0.9312396049499512,-0.20223359763622284
1700006754848211700,3.859211669921875,-0.1320207715034485,0.8753988742828369,-0.1786762773990631
1700006754858156800,3.86915673828125,-0.08222924172878265,0.8285852670669556,-0.16145680844783783
1700006754868102000,3.879101806640625,-0.04681289568543434,0.7809950113296509,-0.1508302241563797
1700006754878046700,3.889046630859375,0.0014686184003949165,0.7625776529312134,-0.13697539269924164
1700006754887992800,3.898992919921875,0.03808782994747162,0.7428994178771973,-0.12480758875608444
1700006754897937700,3.908937744140625,0.06654930114746094,0.7246788740158081,-0.11661623418331146
1700006754907882800,3.9188828125,0.10268127918243408,0.6930739283561707,-0.1029541864991188
1700006754917827800,3.928827880859375,0.1314913034439087,0.6838201880455017,-0.10322224348783493
1700006754927772700,3.938772705078125,0.17178305983543396,0.6764655709266663,-0.11189456284046173
1700006754937717800,3.9487177734375,0.23804624378681183,0.6597676873207092,-0.11106140911579132
1700006754947662800,3.958662841796875,0.3258562386035919,0.6156800985336304,-0.09246668219566345
1700006754957608700,3.968608642578125,0.38299864530563354,0.5608914494514465,-0.06281425058841705
1700006754967553800,3.9785537109375,0.3850332796573639,0.5024209022521973,-0.05171871930360794
1700006754977499400,3.98849951171875,0.3165041208267212,0.4297415018081665,-0.06345003843307495
1700006754987444500,3.998444580078125,0.25473955273628235,0.3682323098182678,-0.0749487653374672
1700006754997389600,4.0083896484375,0.2168128490447998,0.2633633315563202,-0.05989675223827362
1700006755007334400,4.01833447265625,0.20310716331005096,0.19531451165676117,-0.045604635030031204
1700006755017280500,4.028280517578125,0.21246960759162903,0.19801248610019684,-0.061769161373376846
1700006755027225600,4.0382255859375,0.2340097874403,0.22329387068748474,-0.09512925148010254
1700006755037170400,4.04817041015625,0.2579110860824585,0.2495729923248291,-0.12651100754737854
1700006755047115500,4.058115478515625,0.26776397228240967,0.31197646260261536,-0.16468822956085205
1700006755057060600,4.068060546875,0.26564687490463257,0.38043782114982605,-0.2237553745508194
1700006755067006500,4.07800634765625,0.2565159797668457,0.4356331527233124,-0.31200477480888367
1700006755076951600,4.08795166015625,0.24568623304367065,0.4431304931640625,-0.395768404006958
1700006755086896400,4.097896484375,0.2351398468017578,0.44934549927711487,-0.4387209117412567
1700006755096841500,4.107841552734375,0.22588828206062317,0.46364322304725647,-0.45186227560043335
1700006755106786600,4.11778662109375,0.2161019742488861,0.49351561069488525,-0.45373156666755676
1700006755116731400,4.1277314453125,0.2208467572927475,0.5176605582237244,-0.4051133990287781
1700006755126677500,4.137677490234375,0.22515681385993958,0.5261081457138062,-0.30360540747642517
1700006755136622300,4.147622314453125,0.2363726794719696,0.5445733070373535,-0.18140988051891327
1700006755146567700,4.157567626953125,0.26040852069854736,0.5203302502632141,-0.06219320744276047
1700006755156512500,4.167512451171875,0.2984495759010315,0.4713155925273895,0.038781311362981796
1700006755166457300,4.177457275390625,0.34310704469680786,0.40774086117744446,0.10565382242202759
1700006755176402700,4.187402587890625,0.3683903217315674,0.383301705121994,0.13861042261123657
1700006755186348500,4.1973486328125,0.3702944815158844,0.34317052364349365,0.16903278231620789
1700006755196293600,4.207293701171875,0.36735594272613525,0.339048832654953,0.2429945021867752
1700006755206238500,4.217238525390625,0.3522518277168274,0.35853809118270874,0.3584715723991394
1700006755216183300,4.227183349609375,0.33946409821510315,0.361485093832016,0.4804674983024597
1700006755226128600,4.237128662109375,0.3710068464279175,0.41021615266799927,0.5360109210014343
1700006755236073500,4.247073486328125,0.42811301350593567,0.5147817730903625,0.46959570050239563
1700006755246019300,4.257019287109375,0.44397562742233276,0.5377592444419861,0.33678627014160156
1700006755255964400,4.26696435546875,0.4224785268306732,0.4466995298862457,0.27919721603393555
1700006755265909500,4.276909423828125,0.3774505853652954,0.32138317823410034,0.2735249400138855
1700006755275854600,4.2868544921875,0.3314736485481262,0.2151106595993042,0.3003092408180237
1700006755285799400,4.29679931640625,0.29178377985954285,0.15832221508026123,0.34836170077323914
1700006755295745300,4.306745361328125,0.2385185956954956,0.14262844622135162,0.3929797410964966
1700006755305690600,4.316690673828125,0.19994430243968964,0.1054813489317894,0.4342678189277649
1700006755315635500,4.326635498046875,0.1791527420282364,0.0405777171254158,0.46309810876846313
1700006755325580300,4.336580322265625,0.1670452058315277,-0.030610710382461548,0.46412768959999084
1700006755335525600,4.346525634765625,0.16283075511455536,-0.10200473666191101,0.4321364760398865
1700006755345470500,4.356470458984375,0.15937939286231995,-0.1812344491481781,0.3844504654407501
1700006755355416600,4.36641650390625,0.13917958736419678,-0.2642827033996582,0.3199865221977234
1700006755365361400,4.376361328125,0.11121103167533875,-0.32764267921447754,0.23773080110549927
1700006755375306200,4.38630615234375,0.08828122913837433,-0.391156941652298,0.15985092520713806
1700006755385251600,4.39625146484375,0.06422087550163269,-0.4511837065219879,0.09581520408391953
1700006755395196400,4.406196533203125,0.06580119580030441,-0.5109943151473999,0.04115008935332298
1700006755405141500,4.4161416015625,0.09368045628070831,-0.5589438080787659,-0.0016336138360202312
1700006755415087400,4.42608740234375,0.12466926872730255,-0.5959276556968689,-0.02757999300956726
1700006755425032400,4.436032470703125,0.15044403076171875,-0.6320222020149231,-0.039079051464796066
1700006755434977500,4.4459775390625,0.15516607463359833,-0.6691349148750305,-0.055205825716257095
1700006755444922400,4.45592236328125,0.14681203663349152,-0.6961135864257812,-0.0834820345044136
1700006755454867500,4.465867431640625,0.1353151798248291,-0.7135215997695923,-0.11179383844137192
1700006755464813600,4.4758134765625,0.11843298375606537,-0.7309221029281616,-0.14838601648807526
1700006755474758400,4.48575830078125,0.0883491113781929,-0.7559270858764648,-0.1755926012992859
1700006755484703500,4.495703369140625,0.06813769787549973,-0.7844378352165222,-0.18919213116168976
1700006755494648600,4.505648681640625,0.06653261184692383,-0.7816340327262878,-0.22384731471538544
1700006755504593400,4.515593505859375,0.026960812509059906,-0.7901691198348999,-0.201131671667099
1700006755514538500,4.52553857421875,0.026281706988811493,-0.7796595096588135,-0.15879859030246735
1700006755524484400,4.535484375,0.020713934674859047,-0.800524115562439,-0.12473087012767792
1700006755534429400,4.545429443359375,0.019062776118516922,-0.8179150819778442,-0.10736492276191711
1700006755544374500,4.55537451171875,0.019399132579565048,-0.838493824005127,-0.09701641649007797
1700006755554319400,4.5653193359375,0.02361970953643322,-0.8738736510276794,-0.08950337022542953
1700006755564264400,4.575264404296875,0.035619743168354034,-0.9063982963562012,-0.10101351141929626
1700006755574209500,4.58520947265625,0.044169023633003235,-0.9395051002502441,-0.12609462440013885
1700006755584155600,4.59515576171875,0.04541688412427902,-0.9743347764015198,-0.1820434331893921
1700006755594100500,4.6051005859375,0.025323335081338882,-0.9991368055343628,-0.23782067000865936
1700006755604045300,4.61504541015625,0.023902785032987595,-1.0179215669631958,-0.2965165078639984
1700006755613990700,4.62499072265625,0.02218531258404255,-1.0409832000732422,-0.3578006327152252
1700006755623935500,4.634935546875,0.014137810096144676,-1.054977536201477,-0.4200173616409302
1700006755633880300,4.64488037109375,0.010965452529489994,-1.0368001461029053,-0.47995632886886597
1700006755643826400,4.654826416015625,0.012285469099879265,-1.0043456554412842,-0.5272360444068909
1700006755653771500,4.664771484375,0.006353277713060379,-0.9773340225219727,-0.5584195256233215
1700006755663716600,4.674716552734375,-0.009951815009117126,-0.9501156210899353,-0.5805962681770325
1700006755673661400,4.684661376953125,-0.056508928537368774,-0.9087522029876709,-0.6056923270225525
1700006755683606300,4.694606201171875,-0.12881842255592346,-0.860548734664917,-0.6363164186477661
1700006755693552400,4.704552490234375,-0.20760910212993622,-0.7944368124008179,-0.6452335119247437
1700006755703497500,4.71449755859375,-0.2731032073497772,-0.6976242661476135,-0.6381749510765076
1700006755713442600,4.724442626953125,-0.30032628774642944,-0.6005150675773621,-0.5840389728546143
1700006755723387400,4.734387451171875,-0.29776284098625183,-0.5329409241676331,-0.4586859345436096
1700006755733332500,4.74433251953125,-0.27869805693626404,-0.49444788694381714,-0.29925766587257385
1700006755743277600,4.754277587890625,-0.26536816358566284,-0.4754430055618286,-0.13505926728248596
1700006755753223400,4.764223388671875,-0.2547179162502289,-0.46302229166030884,0.017010696232318878
1700006755763168500,4.77416845703125,-0.2559340000152588,-0.44614747166633606,0.14996495842933655
1700006755773113600,4.784113525390625,-0.258908748626709,-0.43527910113334656,0.28084760904312134
1700006755783058400,4.794058349609375,-0.2589356601238251,-0.4359954297542572,0.4081455171108246
1700006755793003500,4.80400341796875,-0.2678087651729584,-0.423382431268692,0.5250793099403381
1700006755802948400,4.8139482421875,-0.29022687673568726,-0.3353438973426819,0.5827575922012329
1700006755812894500,4.82389453125,-0.32997244596481323,-0.18610405921936035,0.5657171010971069
1700006755822839600,4.833839599609375,-0.37739676237106323,-0.05314035341143608,0.5160569548606873
1700006755832784400,4.843784423828125,-0.43003785610198975,0.044559840112924576,0.4208606481552124
1700006755842729500,4.8537294921875,-0.4758833348751068,0.07299267500638962,0.35111090540885925
1700006755852674600,4.863674560546875,-0.5292149782180786,0.05607122182846069,0.2999766170978546
1700006755862620700,4.87362060546875,-0.5670574307441711,0.038135528564453125,0.25155529379844666
1700006755872565500,4.8835654296875,-0.588816225528717,0.05952231213450432,0.20262397825717926
1700006755882510300,4.89351025390625,-0.5867039561271667,0.13393639028072357,0.15645892918109894
1700006755892455700,4.90345556640625,-0.5929714441299438,0.23766571283340454,0.12062476575374603
1700006755902400500,4.913400390625,-0.5982226729393005,0.3397524058818817,0.07935722172260284
1700006755912345300,4.923345458984375,-0.6019833087921143,0.4126740097999573,0.045730821788311005
1700006755922291500,4.93329150390625,-0.5958897471427917,0.46889564394950867,0.015525257214903831
1700006755932236500,4.943236572265625,-0.5631938576698303,0.5307416915893555,-0.01973872259259224
1700006755942181600,4.953181640625,-0.5060423016548157,0.5979179739952087,-0.06761540472507477
1700006755952126500,4.96312646484375,-0.44156771898269653,0.6471691727638245,-0.12194282561540604
1700006755962071300,4.9730712890625,-0.38476234674453735,0.6871951222419739,-0.15631110966205597
1700006755972017000,4.983016845703125,-0.33636951446533203,0.7179855108261108,-0.16563324630260468
1700006755981962800,4.992962646484375,-0.288952499628067,0.7387298345565796,-0.1596847027540207
1700006755991907800,5.002907958984375,-0.23984409868717194,0.7474061250686646,-0.1490917056798935
1700006756001852700,5.012852783203125,-0.19288155436515808,0.7542664408683777,-0.13326449692249298
1700006756011797800,5.0227978515625,-0.1556503027677536,0.7408278584480286,-0.10569599270820618
1700006756021742800,5.032742919921875,-0.12759502232074738,0.7480140328407288,-0.09511765092611313
1700006756031687700,5.042687744140625,-0.1014837846159935,0.7385872006416321,-0.09431550651788712
1700006756041633500,5.052633544921875,-0.06652197986841202,0.7046650648117065,-0.08244110643863678
1700006756051579000,5.062578857421875,-0.022918306291103363,0.6683472394943237,-0.058980248868465424
1700006756061523700,5.072523681640625,0.02790996804833412,0.627049446105957,-0.033031485974788666
1700006756071468800,5.08246875,0.08036705106496811,0.6413058638572693,-0.02185233309864998
1700006756081413600,5.09241357421875,0.1302032470703125,0.6820181012153625,-0.020237840712070465
1700006756091358700,5.102358642578125,0.18613176047801971,0.7226728200912476,-0.014737879857420921
1700006756101304800,5.112304931640625,0.2255467176437378,0.760928750038147,0.004297962877899408
1700006756111249700,5.122249755859375,0.2814302146434784,0.7888913750648499,0.03160734847187996
1700006756121194800,5.13219482421875,0.31860947608947754,0.8043256998062134,0.046320460736751556
1700006756131139800,5.142139892578125,0.3382081985473633,0.8093894124031067,0.04068761318922043
1700006756141084700,5.152084716796875,0.349613219499588,0.808824360370636,0.013105538673698902
1700006756151030800,5.16203076171875,0.32471346855163574,0.8097003102302551,-0.0332033708691597
1700006756160975600,5.1719755859375,0.2908567190170288,0.8144268989562988,-0.08542126417160034
1700006756170920700,5.181920654296875,0.26071852445602417,0.8365580439567566,-0.12666617333889008
1700006756180865800,5.19186572265625,0.22395262122154236,0.8416908383369446,-0.16708360612392426
1700006756190810600,5.201810546875,0.21478281915187836,0.8287351131439209,-0.16228006780147552
1700006756200755700,5.211755615234375,0.21737226843833923,0.8119546175003052,-0.14157196879386902
1700006756210701800,5.221701904296875,0.23513475060462952,0.8186697363853455,-0.1286417841911316
1700006756220646700,5.231646728515625,0.24396616220474243,0.825385570526123,-0.11327008157968521
1700006756230591700,5.241591796875,0.23320168256759644,0.8298484683036804,-0.1233256459236145
1700006756240536600,5.25153662109375,0.23500029742717743,0.8169876933097839,-0.11622437089681625
1700006756250481700,5.261481689453125,0.24123422801494598,0.7807838916778564,-0.08072523772716522
1700006756260426800,5.2714267578125,0.24578507244586945,0.713089108467102,-0.03439340367913246
1700006756270372600,5.28137255859375,0.23917937278747559,0.6412676572799683,0.005065854173153639
1700006756280317700,5.291317626953125,0.22835272550582886,0.5962473154067993,0.021245718002319336
1700006756290262800,5.3012626953125,0.22270362079143524,0.5872847437858582,0.02061534859240055
1700006756300207600,5.31120751953125,0.21053215861320496,0.5802722573280334,0.011930624023079872
1700006756310152700,5.321152587890625,0.19971413910388947,0.5773044228553772,0.014186853542923927
1700006756320098600,5.3310986328125,0.20075640082359314,0.5942980051040649,0.030120495706796646
1700006756330044000,5.3410439453125,0.21798013150691986,0.626044750213623,0.06341267377138138
1700006756339988700,5.35098876953125,0.2332199066877365,0.6710214614868164,0.10723651945590973
1700006756349933600,5.36093359375,0.2564972937107086,0.713346540927887,0.1659669429063797
1700006756359878700,5.370878662109375,0.2832266092300415,0.7534048557281494,0.24078750610351562
1700006756369823700,5.38082373046875,0.3167494237422943,0.7795989513397217,0.30963847041130066
1700006756379769900,5.390769775390625,0.34555119276046753,0.7785021662712097,0.35512417554855347
1700006756389714700,5.400714599609375,0.3721354007720947,0.7297292947769165,0.3820101320743561
1700006756399659500,5.410659423828125,0.3995862603187561,0.6297191977500916,0.4317421615123749
1700006756409604900,5.42060498046875,0.43667155504226685,0.5508970618247986,0.5080134272575378
1700006756419549700,5.4305498046875,0.46007677912712097,0.5230052471160889,0.5756151676177979
1700006756429494500,5.44049462890625,0.47828084230422974,0.5256705284118652,0.6227323412895203
1700006756439440600,5.450440673828125,0.47931230068206787,0.5566312074661255,0.6555660963058472
1700006756449385700,5.4603857421875,0.4780465066432953,0.5966278910636902,0.6741293668746948
1700006756459330800,5.470330810546875,0.4690328538417816,0.6305204033851624,0.6807481050491333
1700006756469275600,5.480275634765625,0.4833822250366211,0.650870680809021,0.705056369304657
1700006756479220700,5.490220703125,0.4655326306819916,0.6846885681152344,0.6936299800872803
1700006756489165800,5.500165771484375,0.3803351819515228,0.6970946788787842,0.6583713293075562
1700006756499111700,5.510111572265625,0.2940329909324646,0.6592474579811096,0.678373396396637
1700006756509056800,5.520056884765625,0.1455465704202652,0.6161561608314514,0.6851849555969238
1700006756519001600,5.530001708984375,0.02319413423538208,0.5336745381355286,0.6976054906845093
1700006756528946700,5.53994677734375,-0.045302100479602814,0.4323391318321228,0.7500750422477722
1700006756538891800,5.549891845703125,-0.054915424436330795,0.3296319842338562,0.8200621008872986
1700006756548836600,5.559836669921875,-0.04533576965332031,0.2818165123462677,0.856131911277771
1700006756558782700,5.56978271484375,-0.07452302426099777,0.25220444798469543,0.8247188925743103
1700006756568727800,5.579727783203125,-0.14523154497146606,0.23906788229942322,0.7369893193244934
1700006756578672600,5.589672607421875,-0.21077892184257507,0.20144402980804443,0.6613582372665405
1700006756588617700,5.59961767578125,-0.23682251572608948,0.17651072144508362,0.603046178817749
1700006756598562800,5.609562744140625,-0.23281662166118622,0.1271256059408188,0.5371666550636292
1700006756608509000,5.619509033203125,-0.23106399178504944,0.11388275772333145,0.430527001619339
1700006756618453800,5.629453857421875,-0.23750640451908112,0.12262210994958878,0.327056884765625
1700006756628398600,5.639398681640625,-0.24326735734939575,0.12552762031555176,0.23144300282001495
1700006756638344000,5.649343994140625,-0.25237753987312317,0.11935005336999893,0.15977716445922852
1700006756648288800,5.659288818359375,-0.2526920437812805,0.13087567687034607,0.10871531814336777
1700006756658233600,5.669233642578125,-0.2501666247844696,0.1575939953327179,0.06676888465881348
1700006756668179700,5.6791796875,-0.2446397840976715,0.19933930039405823,0.03372492268681526
1700006756678124500,5.68912451171875,-0.24430546164512634,0.2381262183189392,0.017869964241981506
1700006756688070000,5.69906982421875,-0.25530752539634705,0.28168195486068726,0.008673269301652908
1700006756698014700,5.7090146484375,-0.2627107501029968,0.3433252274990082,0.00410998472943902
1700006756707959600,5.71895947265625,-0.25842785835266113,0.4170929193496704,-0.003115171566605568
1700006756717905000,5.72890478515625,-0.23558329045772552,0.47302889823913574,0.003732217475771904
1700006756727850800,5.738850830078125,-0.22115135192871094,0.5138149261474609,0.022088054567575455
1700006756737795800,5.7487958984375,-0.2132912278175354,0.5290231704711914,0.054263461381196976
1700006756747740700,5.75874072265625,-0.21334581077098846,0.5459057092666626,0.06514380872249603
1700006756757685800,5.768685791015625,-0.20458531379699707,0.5763501524925232,0.020374339073896408
1700006756767630800,5.778630859375,-0.2274983525276184,0.616179347038269,-0.021332625299692154
1700006756777575700,5.78857568359375,-0.2263575792312622,0.6515804529190063,-0.04887442663311958
1700006756787521800,5.798521728515625,-0.21601226925849915,0.7064186334609985,-0.08141878247261047
1700006756797467000,5.808466796875,-0.22899284958839417,0.7564722895622253,-0.07999681681394577
1700006756807411700,5.81841162109375,-0.21241867542266846,0.770315945148468,-0.07023660093545914
1700006756817356800,5.828356689453125,-0.1926082968711853,0.7810832262039185,-0.057684630155563354
1700006756827301600,5.838301513671875,-0.19213984906673431,0.8033544421195984,-0.02408885583281517
1700006756837246700,5.848246826171875,-0.20261090993881226,0.8022107481956482,-0.003146195085719228
1700006756847192800,5.85819287109375,-0.20297682285308838,0.7724863886833191,0.0038291560485959053
1700006756857137700,5.8681376953125,-0.19874899089336395,0.739832878112793,0.007734598591923714
1700006756867082800,5.878082763671875,-0.18193325400352478,0.7426742315292358,-0.008635319769382477
1700006756877027800,5.88802783203125,-0.16112545132637024,0.7477542757987976,-0.0187019445002079
1700006756886972700,5.89797265625,-0.13970057666301727,0.7305305600166321,-0.027271198108792305
1700006756896918800,5.907918701171875,-0.1364918351173401,0.6813173890113831,-0.020321588963270187
1700006756906863600,5.917863525390625,-0.13679863512516022,0.5884689092636108,-0.007884892635047436
1700006756916808700,5.92780859375,-0.12257016450166702,0.48601633310317993,-0.01648930087685585
1700006756926753800,5.93775390625,-0.08733227849006653,0.3801362216472626,-0.037517353892326355
1700006756936698600,5.94769873046875,-0.06295796483755112,0.2971622347831726,-0.07738461345434189
1700006756946643700,5.957643798828125,-0.043870553374290466,0.23530499637126923,-0.11705559492111206
1700006756956589800,5.96758984375,-0.03868503496050835,0.1943362057209015,-0.15477296710014343
1700006756966534700,5.97753466796875,-0.03803815320134163,0.16416285932064056,-0.16915857791900635
1700006756976478500,5.987478515625,-0.027606479823589325,0.138898104429245,-0.16453342139720917
1700006756986423800,5.997423828125,-0.002754391171038151,0.10261865705251694,-0.14263424277305603
1700006756996368600,6.00736865234375,0.022573886439204216,0.030627187341451645,-0.11418820917606354
1700006757006313500,6.0173134765625,0.032680317759513855,-0.05069563165307045,-0.08346971124410629
1700006757016259600,6.027259521484375,0.036253273487091064,-0.14105352759361267,-0.023487841710448265
1700006757026204700,6.03720458984375,0.02081466093659401,-0.1778229922056198,0.04102989658713341
1700006757036149800,6.047149658203125,-0.0004035038873553276,-0.17744627594947815,0.11378707736730576
1700006757046094600,6.057094482421875,-0.028351781889796257,-0.14493520557880402,0.2005978673696518
1700006757056039700,6.067039794921875,-0.04883240535855293,-0.12999388575553894,0.28423893451690674
1700006757065984800,6.07698486328125,-0.06527795642614365,-0.14042602479457855,0.3533141314983368
1700006757075930600,6.0869306640625,-0.10465555638074875,-0.12606656551361084,0.3936561644077301
1700006757085875700,6.096875732421875,-0.16167409718036652,-0.10352369397878647,0.4054073691368103
1700006757095820500,6.106820556640625,-0.2008744776248932,-0.06016494706273079,0.4097578227519989
1700006757105765600,6.116765625,-0.21193698048591614,0.00012848805636167526,0.4120207130908966
1700006757115710700,6.126710693359375,-0.22565609216690063,0.06964875012636185,0.39719441533088684
1700006757125656600,6.136656494140625,-0.24402683973312378,0.09476582705974579,0.371595561504364
1700006757135601700,6.1466015625,-0.2581012547016144,0.09698699414730072,0.35961219668388367
1700006757145546800,6.156546630859375,-0.25145480036735535,0.11489728838205338,0.34636804461479187
1700006757155491600,6.16649169921875,-0.25910910964012146,0.13136032223701477,0.32487812638282776
1700006757165436700,6.176436767578125,-0.2837526798248291,0.13351188600063324,0.29809391498565674
1700006757175381800,6.1863818359375,-0.3045285642147064,0.1620941162109375,0.27029624581336975
1700006757185327600,6.19632763671875,-0.31580066680908203,0.21483296155929565,0.2475094199180603
1700006757195272700,6.206272705078125,-0.3267858922481537,0.2769489586353302,0.2006496638059616
1700006757205217500,6.216217529296875,-0.31935781240463257,0.3425135612487793,0.13210149109363556
1700006757215163000,6.226162841796875,-0.3111196756362915,0.4149780869483948,0.05497777462005615
1700006757225107700,6.236107666015625,-0.3136502206325531,0.4825661778450012,-0.025277649983763695
1700006757235052500,6.246052490234375,-0.31818023324012756,0.524846613407135,-0.11126657575368881
1700006757244998700,6.25599853515625,-0.3117002248764038,0.5228239297866821,-0.1829862892627716
1700006757254943500,6.265943603515625,-0.3025253117084503,0.4925711750984192,-0.22136910259723663
1700006757264888600,6.275888671875,-0.29236161708831787,0.47169384360313416,-0.2555920481681824
1700006757274833700,6.285833740234375,-0.2748258411884308,0.43587958812713623,-0.281764417886734
1700006757284778500,6.295778564453125,-0.2456386834383011,0.401571661233902,-0.280012845993042
1700006757294723800,6.305723876953125,-0.2084973007440567,0.40629857778549194,-0.2631079852581024
1700006757304669700,6.315669677734375,-0.15666338801383972,0.43136557936668396,-0.24945449829101562
1700006757314614500,6.325614501953125,-0.09798825532197952,0.4319450855255127,-0.2137136310338974
1700006757324559600,6.3355595703125,-0.05414729192852974,0.40801337361335754,-0.19471703469753265
1700006757334504700,6.345504638671875,-0.03090708516538143,0.357427179813385,-0.1706429123878479
1700006757344449800,6.35544970703125,-0.015235714614391327,0.33786681294441223,-0.16173118352890015
1700006757354394600,6.36539453125,-0.006900060921907425,0.32691705226898193,-0.1865868717432022
1700006757364340500,6.375340576171875,0.006970214657485485,0.32121390104293823,-0.21446643769741058
1700006757374285800,6.385285888671875,0.007362328935414553,0.31589779257774353,-0.24388940632343292
1700006757384230700,6.395230712890625,0.010015903040766716,0.30847129225730896,-0.2704813480377197
1700006757394175500,6.405175537109375,0.019307784736156464,0.2992287278175354,-0.294389545917511
1700006757404120600,6.41512060546875,0.02494036965072155,0.3015986680984497,-0.3170325458049774
1700006757414065700,6.425065673828125,0.03581931069493294,0.3011957108974457,-0.3258616328239441
1700006757424011800,6.43501171875,0.046522289514541626,0.2948746979236603,-0.3135564923286438
1700006757433956600,6.44495654296875,0.06078275293111801,0.30335018038749695,-0.29753872752189636
1700006757443901400,6.4549013671875,0.07188546657562256,0.3150894045829773,-0.26968634128570557
1700006757453846800,6.4648466796875,0.07111653685569763,0.3298916220664978,-0.2407870888710022
1700006757463791600,6.47479150390625,0.07134769856929779,0.3506387174129486,-0.23124417662620544
1700006757473737700,6.48473779296875,0.07109158486127853,0.3624785542488098,-0.23265549540519714
1700006757483682600,6.4946826171875,0.06814906001091003,0.3597203195095062,-0.24023085832595825
1700006757493627600,6.504627685546875,0.07077302783727646,0.35874220728874207,-0.2371748685836792
1700006757503572700,6.51457275390625,0.08482147008180618,0.352243572473526,-0.2451038956642151
1700006757513517600,6.524517578125,0.09455028176307678,0.3398291766643524,-0.24483239650726318
1700006757523462700,6.534462646484375,0.11107839643955231,0.3132402002811432,-0.2525896430015564
1700006757533408800,6.54440869140625,0.1234402135014534,0.28916135430336,-0.2596045434474945
1700006757543353600,6.554353515625,0.1297476440668106,0.27348679304122925,-0.2771454453468323
1700006757553298700,6.564298583984375,0.12399681657552719,0.26570484042167664,-0.29751986265182495
1700006757563243500,6.574243408203125,0.1103515774011612,0.2571486234664917,-0.3186107575893402
1700006757573188600,6.584188720703125,0.09124279022216797,0.24128113687038422,-0.34335556626319885
1700006757583133700,6.5941337890625,0.0714147612452507,0.21943840384483337,-0.37701740860939026
1700006757593079600,6.60407958984375,0.0574360117316246,0.20975787937641144,-0.4014051854610443
1700006757603024600,6.614024658203125,0.038559526205062866,0.21752020716667175,-0.40751153230667114
1700006757612969700,6.6239697265625,0.036168161779642105,0.20681728422641754,-0.40578562021255493
1700006757622914600,6.63391455078125,0.056697405874729156,0.16125673055648804,-0.3639340400695801
1700006757632859600,6.643859619140625,0.10142076015472412,0.12432032078504562,-0.3070954978466034
1700006757642804700,6.6538046875,0.14401963353157043,0.0730331614613533,-0.23371446132659912
1700006757652750800,6.663750732421875,0.16914919018745422,-0.008292224258184433,-0.13819248974323273
1700006757662695700,6.67369580078125,0.20830965042114258,-0.08195392787456512,-0.07468647509813309
1700006757672640500,6.683640625,0.23580153286457062,-0.19153054058551788,-0.0414322204887867
1700006757682585600,6.693585693359375,0.25367453694343567,-0.2651698887348175,-0.013847731053829193
1700006757692530700,6.70353076171875,0.2812650799751282,-0.33074402809143066,0.01952550932765007
1700006757702475500,6.7134755859375,0.316023588180542,-0.411934494972229,0.05978770926594734
1700006757712421600,6.723421630859375,0.36878669261932373,-0.47522085905075073,0.10882224142551422
1700006757722366500,6.733366455078125,0.39870142936706543,-0.5394102334976196,0.14410141110420227
1700006757732311800,6.743311767578125,0.39305827021598816,-0.5834600925445557,0.17933425307273865
1700006757742256600,6.753256591796875,0.3704800009727478,-0.6208407878875732,0.18384644389152527
1700006757752201500,6.763201416015625,0.3552301228046417,-0.6422067880630493,0.1506948471069336
1700006757762146800,6.773146728515625,0.34648242592811584,-0.6712328195571899,0.11447823792695999
1700006757772092700,6.7830927734375,0.3446563184261322,-0.7116360068321228,0.11232389509677887
1700006757782037800,6.793037841796875,0.33375972509384155,-0.7509655952453613,0.12689563632011414
1700006757791982600,6.802982666015625,0.31504157185554504,-0.8019157648086548,0.14403222501277924
1700006757801927700,6.812927734375,0.30184295773506165,-0.8634883165359497,0.17418719828128815
1700006757811872800,6.822872802734375,0.2974194586277008,-0.9362221956253052,0.21368256211280823
1700006757821818600,6.832818603515625,0.29764556884765625,-1.018882393836975,0.2531346380710602
1700006757831763700,6.842763671875,0.2944256663322449,-1.0947779417037964,0.2921510636806488
1700006757841708500,6.85270849609375,0.29224079847335815,-1.1481953859329224,0.3213329017162323
1700006757851653600,6.862653564453125,0.2793445885181427,-1.1778446435928345,0.3450416624546051
1700006757861598700,6.8725986328125,0.259148508310318,-1.1969751119613647,0.3640076518058777
1700006757871543600,6.88254345703125,0.22779834270477295,-1.2005925178527832,0.3599020838737488
1700006757881489700,6.89248974609375,0.20172305405139923,-1.1954669952392578,0.3471932113170624
1700006757891434800,6.902434814453125,0.1917327493429184,-1.198133945465088,0.32302677631378174
1700006757901379600,6.912379638671875,0.18745598196983337,-1.1925777196884155,0.29261478781700134
1700006757911324700,6.92232470703125,0.1799452304840088,-1.188851237297058,0.2420932650566101
1700006757921269800,6.932269775390625,0.17145852744579315,-1.1889886856079102,0.16448581218719482
1700006757931214600,6.942214599609375,0.15923435986042023,-1.2010393142700195,0.06692744046449661
1700006757941160700,6.95216064453125,0.15583190321922302,-1.228559136390686,-0.030276339501142502
1700006757951105500,6.96210546875,0.1521400362253189,-1.2784614562988281,-0.11650267243385315
1700006757961050600,6.972050537109375,0.1517440229654312,-1.344094157218933,-0.18798032402992249
1700006757970995700,6.98199560546875,0.16262637078762054,-1.4239164590835571,-0.23655685782432556
1700006757980941800,6.99194189453125,0.17021505534648895,-1.511720061302185,-0.25639021396636963
1700006757990886700,7.00188671875,0.17205938696861267,-1.593835711479187,-0.27450376749038696
1700006758000832800,7.011832763671875,0.16864334046840668,-1.653835415840149,-0.28723740577697754
1700006758010777600,7.021777587890625,0.15815116465091705,-1.6880266666412354,-0.3047580420970917
1700006758020722700,7.03172265625,0.1479826718568802,-1.718196988105774,-0.32074683904647827
1700006758030667800,7.041667724609375,0.14089925587177277,-1.746204137802124,-0.33240026235580444
1700006758040612600,7.051612548828125,0.13246981799602509,-1.7782342433929443,-0.3297373652458191
1700006758050557700,7.0615576171875,0.1261809766292572,-1.8189129829406738,-0.3106745183467865
1700006758060503800,7.07150390625,0.12240993976593018,-1.851562261581421,-0.2840580940246582
1700006758070448600,7.08144873046875,0.11942249536514282,-1.8684563636779785,-0.2719362676143646
1700006758080393700,7.091393798828125,0.09294162690639496,-1.858823537826538,-0.26427754759788513
1700006758090338800,7.1013388671875,0.08646003901958466,-1.8369252681732178,-0.27603164315223694
1700006758100283600,7.11128369140625,0.060338154435157776,-1.8089998960494995,-0.2800540626049042
1700006758110228700,7.121228759765625,0.051593080163002014,-1.7717560529708862,-0.28757035732269287
1700006758120174600,7.131174560546875,0.043049395084381104,-1.7313764095306396,-0.3020281195640564
1700006758130119700,7.14111962890625,0.026668593287467957,-1.688223123550415,-0.3415202498435974
1700006758140064800,7.151064697265625,0.01749027520418167,-1.6527093648910522,-0.38499343395233154
1700006758150009600,7.161009521484375,0.013052362948656082,-1.6340712308883667,-0.43026649951934814
1700006758159954700,7.17095458984375,-0.008158914744853973,-1.6180603504180908,-0.4628329873085022
1700006758169900500,7.180900634765625,-0.024861063808202744,-1.593503475189209,-0.4882456064224243
1700006758179846000,7.190845947265625,-0.04822603985667229,-1.5375741720199585,-0.4994545876979828
1700006758189790700,7.200790771484375,-0.07745639979839325,-1.4834281206130981,-0.495930939912796
1700006758199735600,7.210735595703125,-0.07909078150987625,-1.4237605333328247,-0.4933689832687378
1700006758209681000,7.220680908203125,-0.06623635441064835,-1.3835077285766602,-0.4911632537841797
1700006758219625700,7.230625732421875,-0.07312755286693573,-1.3169203996658325,-0.4960613548755646
1700006758229571800,7.24057177734375,-0.07861525565385818,-1.243454098701477,-0.4850630760192871
1700006758239516700,7.2505166015625,-0.09102212637662888,-1.160088062286377,-0.4682699739933014
1700006758249461800,7.260461669921875,-0.08857369422912598,-1.0774768590927124,-0.4300120770931244
1700006758259406800,7.27040673828125,-0.07900655269622803,-1.0080658197402954,-0.3674054443836212
1700006758269351700,7.2803515625,-0.06772395968437195,-0.9513658285140991,-0.290144145488739
1700006758279296500,7.290296630859375,-0.062222667038440704,-0.9078966379165649,-0.2154829502105713
1700006758289242600,7.30024267578125,-0.06935486197471619,-0.8768793940544128,-0.1472984403371811
1700006758299187700,7.310187744140625,-0.08491624146699905,-0.8453765511512756,-0.09362029284238815
1700006758309132800,7.3201328125,-0.09817644208669662,-0.8089650273323059,-0.030710600316524506
1700006758319077600,7.33007763671875,-0.10804770886898041,-0.766671359539032,0.043719422072172165
1700006758329022700,7.340022705078125,-0.12355642020702362,-0.7344340085983276,0.12468162924051285
1700006758338967800,7.3499677734375,-0.14358766376972198,-0.7074080109596252,0.1948886662721634
1700006758348913700,7.35991357421875,-0.1611940860748291,-0.6816158294677734,0.25480061769485474
1700006758358858800,7.369858642578125,-0.1705590784549713,-0.6622788906097412,0.31405380368232727
1700006758368803800,7.379803955078125,-0.17933279275894165,-0.6560813784599304,0.36798927187919617
1700006758378748700,7.389748779296875,-0.19598554074764252,-0.6423546075820923,0.4048415720462799
1700006758388693800,7.39969384765625,-0.21164847910404205,-0.6041728258132935,0.41442182660102844
1700006758398638800,7.409638916015625,-0.22145770490169525,-0.5629574656486511,0.4163646101951599
1700006758408585000,7.4195849609375,-0.22186791896820068,-0.5079965591430664,0.4021361172199249
1700006758418529800,7.42952978515625,-0.2066948264837265,-0.4185803532600403,0.38128435611724854
1700006758428474600,7.439474609375,-0.17449964582920074,-0.3526691496372223,0.3551180958747864
1700006758438419700,7.449419677734375,-0.13747531175613403,-0.3247682750225067,0.35717618465423584
1700006758448364800,7.45936474609375,-0.11167716979980469,-0.3047693967819214,0.38376885652542114
1700006758458309600,7.4693095703125,-0.1014929711818695,-0.2955082654953003,0.4107093811035156
1700006758468255700,7.479255859375,-0.11284796893596649,-0.274606853723526,0.4142569303512573
1700006758478200600,7.48920068359375,-0.1595289260149002,-0.2503371834754944,0.4080192744731903
1700006758488146000,7.49914599609375,-0.20768988132476807,-0.19836856424808502,0.394189715385437
1700006758498090800,7.5090908203125,-0.2627217173576355,-0.15072114765644073,0.35961389541625977
1700006758508035600,7.51903564453125,-0.31005141139030457,-0.09648142755031586,0.32525840401649475
1700006758517981000,7.52898095703125,-0.3435140550136566,-0.03229418769478798,0.2873744070529938
1700006758527926800,7.5389267578125,-0.3444838225841522,0.026732567697763443,0.2646094262599945
1700006758537872000,7.548871826171875,-0.3265130817890167,0.07684367895126343,0.26337769627571106
1700006758547816700,7.558816650390625,-0.3003925681114197,0.1239314004778862,0.26770567893981934
1700006758557761800,7.56876171875,-0.29528704285621643,0.17866681516170502,0.2301628440618515
1700006758567707000,7.578706787109375,-0.3009653687477112,0.21080614626407623,0.17025946080684662
1700006758577652700,7.58865283203125,-0.30594468116760254,0.22338825464248657,0.12076886743307114
1700006758587597600,7.59859765625,-0.29943034052848816,0.20342442393302917,0.10252287983894348
1700006758597542700,7.608542724609375,-0.27544644474983215,0.18323366343975067,0.09363830834627151
1700006758607487700,7.61848779296875,-0.24869923293590546,0.17052222788333893,0.08498958498239517
1700006758617432800,7.628432861328125,-0.21474553644657135,0.16674932837486267,0.05806928873062134
1700006758627377700,7.638377685546875,-0.17784062027931213,0.17026051878929138,0.030708707869052887
1700006758637323500,7.648323486328125,-0.1342388242483139,0.16367851197719574,0.009585046209394932
1700006758647268900,7.658268798828125,-0.09162773936986923,0.13675397634506226,0.00802936777472496
1700006758657213700,7.668213623046875,-0.04597875475883484,0.09724092483520508,0.016049742698669434
1700006758667158800,7.67815869140625,0.0025163842365145683,0.0566692017018795,0.036088958382606506
1700006758677103900,7.688103759765625,0.049647144973278046,0.024144284427165985,0.048537902534008026
1700006758687048700,7.698048583984375,0.08403134346008301,0.01881006732583046,0.051360923796892166
1700006758696994800,7.707994873046875,0.10903337597846985,0.017145326361060143,0.051709532737731934
1700006758706939600,7.717939697265625,0.11936841905117035,0.04577716439962387,0.02404255047440529
1700006758716884700,7.727884765625,0.12480925768613815,0.05492033064365387,0.016144677996635437
1700006758726829800,7.737829833984375,0.12910862267017365,0.059909239411354065,0.000901377759873867
1700006758736774700,7.747774658203125,0.11349237710237503,0.05301618576049805,-0.03790513798594475
1700006758746719700,7.7577197265625,0.10419716686010361,0.08599792420864105,-0.07376471906900406
1700006758756665600,7.76766552734375,0.09183263778686523,0.1542653888463974,-0.11959771811962128
1700006758766610700,7.777610595703125,0.07490359246730804,0.22178460657596588,-0.15272177755832672
1700006758776555800,7.7875556640625,0.05596797913312912,0.29870525002479553,-0.1710571050643921
1700006758786500600,7.79750048828125,0.05124448612332344,0.37661847472190857,-0.20879974961280823
1700006758796445700,7.80744580078125,0.04530057683587074,0.41957366466522217,-0.28204548358917236
1700006758806390800,7.817390869140625,0.03206400200724602,0.4293596148490906,-0.34550923109054565
1700006758816336600,7.827336669921875,0.022165566682815552,0.4277941882610321,-0.3705945909023285
1700006758826281700,7.83728173828125,0.01200106181204319,0.42115911841392517,-0.36559680104255676
1700006758836226800,7.847226806640625,0.014850111678242683,0.41458138823509216,-0.36573874950408936
1700006758846171600,7.857171630859375,0.027323003858327866,0.4025009572505951,-0.3619764745235443
1700006758856116700,7.86711669921875,0.026002608239650726,0.39927560091018677,-0.3661445677280426
1700006758866061600,7.8770615234375,0.027721300721168518,0.4071993827819824,-0.3620292544364929
1700006758876007700,7.887007568359375,0.019214896485209465,0.39722636342048645,-0.3610268235206604
1700006758885952800,7.896952880859375,0.017467882484197617,0.38101083040237427,-0.3758489191532135
1700006758895897600,7.906897705078125,0.03501012548804283,0.3448491096496582,-0.3738265335559845
1700006758905842700,7.9168427734375,0.06771731376647949,0.28332042694091797,-0.3262062072753906
1700006758915787800,7.926787841796875,0.10435719788074493,0.20698224008083344,-0.25665971636772156
1700006758925732600,7.936732666015625,0.1178160160779953,0.13186217844486237,-0.19242586195468903
1700006758935678700,7.9466787109375,0.12438284605741501,0.05649799853563309,-0.14320093393325806
1700006758945623600,7.95662353515625,0.129526749253273,-0.02255474217236042,-0.08815925568342209
1700006758955569000,7.96656884765625,0.14958173036575317,-0.07994171231985092,-0.03170326352119446
1700006758965513700,7.976513671875,0.1776421219110489,-0.1331828236579895,-0.0029126254376024008
1700006758975458600,7.98645849609375,0.20836147665977478,-0.20872122049331665,0.03835080936551094
1700006758985403600,7.996403564453125,0.23314405977725983,-0.33854714035987854,0.09560105204582214
1700006758995349800,8.006349853515625,0.2635405659675598,-0.48669201135635376,0.17021828889846802
1700006759005294600,8.016294677734376,0.296818345785141,-0.6359768509864807,0.267915815114975
1700006759015239700,8.02623974609375,0.3583841025829315,-0.7646428346633911,0.3703199028968811
1700006759025184500,8.0361845703125,0.4350120425224304,-0.8564448952674866,0.45305100083351135
1700006759035129600,8.046129638671875,0.5042575001716614,-0.9477956295013428,0.48941317200660706
1700006759045074700,8.05607470703125,0.5554983019828796,-1.0257558822631836,0.5204190015792847
1700006759055020500,8.0660205078125,0.5929602384567261,-1.0564939975738525,0.5383118987083435
1700006759064965400,8.07596533203125,0.6245927214622498,-1.047031283378601,0.513699471950531
1700006759074910700,8.08591064453125,0.6264013051986694,-1.0619462728500366,0.4534410834312439
1700006759084855600,8.09585546875,0.5853455066680908,-1.1444885730743408,0.4130302667617798
1700006759094800600,8.105800537109374,0.5581977367401123,-1.2535059452056885,0.3903615474700928
1700006759104745700,8.115745849609375,0.565552294254303,-1.3546264171600342,0.39341405034065247
1700006759114691600,8.125691650390625,0.5754791498184204,-1.42600679397583,0.3968459367752075
1700006759124636700,8.13563671875,0.5548383593559265,-1.4839659929275513,0.3863624036312103
1700006759134581500,8.14558154296875,0.4619274437427521,-1.5372717380523682,0.3518117070198059
1700006759144526600,8.155526611328124,0.3758399784564972,-1.5871940851211548,0.34034571051597595
1700006759154471700,8.1654716796875,0.35099586844444275,-1.6099441051483154,0.34793999791145325
1700006759164416500,8.17541650390625,0.3552817106246948,-1.6267342567443848,0.3390785753726959
1700006759174362600,8.185362548828126,0.3651110529899597,-1.6436656713485718,0.32633697986602783
1700006759184307500,8.195307373046875,0.351495623588562,-1.644018292427063,0.29187649488449097
1700006759194252500,8.20525244140625,0.29970359802246094,-1.6315414905548096,0.2523898482322693
1700006759204197600,8.21519775390625,0.22460779547691345,-1.6422418355941772,0.22080661356449127
1700006759214142500,8.225142578125,0.181055948138237,-1.6402074098587036,0.2046722024679184
1700006759224087800,8.235087890625,0.15400780737400055,-1.651667594909668,0.19625474512577057
1700006759234033700,8.24503369140625,0.14050233364105225,-1.6422209739685059,0.17122606933116913
1700006759243978500,8.254978515625,0.1252480000257492,-1.6325815916061401,0.15314826369285583
1700006759253923600,8.264923583984375,0.11572790890932083,-1.635368824005127,0.15805363655090332
1700006759263868700,8.27486865234375,0.10604120045900345,-1.6561243534088135,0.11988361179828644
1700006759273813500,8.2848134765625,0.0991268903017044,-1.6327673196792603,0.05307517200708389
1700006759283758600,8.294758544921875,0.08927825093269348,-1.5897321701049805,-0.029758458957076073
1700006759293704400,8.304704345703126,0.08037290722131729,-1.5592989921569824,-0.09511814266443253
1700006759303649500,8.3146494140625,0.08043548464775085,-1.5337969064712524,-0.1385820060968399
1700006759313594600,8.3245947265625,0.07863599061965942,-1.5057556629180908,-0.1412760615348816
1700006759323539500,8.33453955078125,0.0786091536283493,-1.4863252639770508,-0.12201710045337677
1700006759333484500,8.344484619140625,0.06763292849063873,-1.4765552282333374,-0.10794495791196823
1700006759343430400,8.354430419921876,0.05626258626580238,-1.4563701152801514,-0.1167718768119812
1700006759353375700,8.364375732421875,0.043763041496276855,-1.4584548473358154,-0.1420958787202835
1700006759363320600,8.374320556640624,0.034517474472522736,-1.462788462638855,-0.1274247169494629
1700006759373265400,8.384265380859375,0.028810586780309677,-1.4438755512237549,-0.09450085461139679
1700006759383210800,8.394210693359375,0.030063167214393616,-1.426793098449707,-0.06468112021684647
1700006759393155600,8.404155517578126,0.03904840350151062,-1.406807780265808,-0.044395290315151215
1700006759403101700,8.414101806640625,0.03978458046913147,-1.3895950317382812,-0.029071684926748276
1700006759413046500,8.424046630859374,0.030224096029996872,-1.3676433563232422,-0.01597319170832634
1700006759422991600,8.43399169921875,0.013400113210082054,-1.3437918424606323,0.005285340826958418
1700006759432936700,8.443936767578125,-0.011319348588585854,-1.305315613746643,0.010331232100725174
1700006759442881500,8.453881591796875,-0.03092624619603157,-1.2636767625808716,0.014118300750851631
1700006759452826600,8.46382666015625,-0.04508440941572189,-1.2042125463485718,0.02813664823770523
1700006759462772500,8.4737724609375,-0.0377168282866478,-1.1337529420852661,0.04779447242617607
1700006759472717600,8.483717529296875,-0.02642902359366417,-1.0681196451187134,0.07153495401144028
1700006759482662700,8.49366259765625,-0.01586182788014412,-0.9686034321784973,0.07522052526473999
1700006759492607500,8.503607421875,-0.015089244581758976,-0.878589928150177,0.053414829075336456
1700006759502552600,8.513552490234375,-0.02968117594718933,-0.7999011278152466,0.011469660326838493
1700006759512497700,8.52349755859375,-0.048538219183683395,-0.7253316044807434,-0.04300343617796898
1700006759522443500,8.533443603515625,-0.05506520718336105,-0.6482223272323608,-0.08538211137056351
1700006759532388600,8.543388671875,-0.05439355969429016,-0.5759888887405396,-0.11990413814783096
1700006759542333700,8.553333740234375,-0.0395946279168129,-0.48726701736450195,-0.14942283928394318
1700006759552278500,8.563278564453125,-0.031272247433662415,-0.43420326709747314,-0.16988711059093475
1700006759562223600,8.5732236328125,-0.031242914497852325,-0.391434907913208,-0.16820386052131653
1700006759572168700,8.583168701171875,-0.04245295748114586,-0.34861499071121216,-0.1836264729499817
1700006759582114800,8.59311474609375,-0.052212830632925034,-0.3065011501312256,-0.21009787917137146
1700006759592059600,8.6030595703125,-0.06006889045238495,-0.26228681206703186,-0.23013071715831757
1700006759602004500,8.61300439453125,-0.07504738867282867,-0.2264403998851776,-0.24668730795383453
1700006759611949600,8.622949462890626,-0.09184741228818893,-0.19559061527252197,-0.2532205879688263
1700006759621894700,8.632894775390625,-0.09800499677658081,-0.1590246558189392,-0.28490108251571655
1700006759631839500,8.642839599609376,-0.09143257886171341,-0.12669840455055237,-0.29425516724586487
1700006759641785600,8.65278564453125,-0.07660188525915146,-0.10716098546981812,-0.27719584107398987
1700006759651730400,8.66273046875,-0.055702466517686844,-0.09477967768907547,-0.24091987311840057
1700006759661675800,8.67267578125,-0.03518471494317055,-0.07345421612262726,-0.21373169124126434
1700006759671620600,8.68262060546875,-0.009766707196831703,-0.07035056501626968,-0.19329139590263367
1700006759681565400,8.6925654296875,0.007074895780533552,-0.0692863017320633,-0.16496998071670532
1700006759691510800,8.7025107421875,0.010244057513773441,-0.07642517238855362,-0.1360616385936737
1700006759701456600,8.71245654296875,0.024908505380153656,-0.08708830177783966,-0.09589450061321259
1700006759711401700,8.722401611328126,0.05021918937563896,-0.08667178452014923,-0.04751311615109444
1700006759721346600,8.7323466796875,0.08059851080179214,-0.08944687247276306,0.014827020466327667
1700006759731291600,8.742291748046876,0.09366930276155472,-0.1031152755022049,0.06779969483613968
1700006759741236700,8.75223681640625,0.09887166321277618,-0.11932630091905594,0.10373764485120773
1700006759751181600,8.762181640625,0.10415351390838623,-0.11352833360433578,0.12759929895401
1700006759761127700,8.772127685546875,0.11007114499807358,-0.08173521608114243,0.12874796986579895
1700006759771072500,8.782072509765625,0.11412180960178375,-0.03165633976459503,0.12041840702295303
1700006759781017600,8.792017578125,0.12443916499614716,-0.03391123563051224,0.15657401084899902
1700006759790962700,8.801962646484375,0.14675459265708923,-0.07653912156820297,0.2028999626636505
1700006759800907500,8.811907470703124,0.15821990370750427,-0.1332714706659317,0.2175009399652481
1700006759810852600,8.8218525390625,0.1634165197610855,-0.15523509681224823,0.22936372458934784
1700006759820798700,8.831798828125,0.1435457170009613,-0.19414465129375458,0.21384234726428986
1700006759830743600,8.84174365234375,0.09833242744207382,-0.2445894479751587,0.16274453699588776
1700006759840688600,8.851688720703125,0.06275253742933273,-0.26841065287590027,0.08426689356565475
1700006759850633700,8.8616337890625,0.04032712057232857,-0.2953610420227051,0.027715997770428658
1700006759860578600,8.87157861328125,0.01412329263985157,-0.31482139229774475,-0.015089364722371101
1700006759870523600,8.881523681640624,-0.009831840172410011,-0.3440735340118408,-0.06431123614311218
1700006759880469500,8.891469482421876,-0.04977421835064888,-0.3923890292644501,-0.11329237371683121
1700006759890414600,8.90141455078125,-0.09990342706441879,-0.4325292408466339,-0.16292837262153625
1700006759900359700,8.911359619140624,-0.15536125004291534,-0.45909568667411804,-0.21319147944450378
1700006759910304500,8.921304443359375,-0.21012648940086365,-0.4994603991508484,-0.22358393669128418
1700006759920249600,8.93124951171875,-0.24085916578769684,-0.539099395275116,-0.18328288197517395
1700006759930194700,8.941194580078125,-0.24451382458209991,-0.5290230512619019,-0.1269378513097763
1700006759940140500,8.951140625,-0.22155998647212982,-0.47798407077789307,-0.06938745081424713
1700006759950085600,8.961085693359376,-0.19432251155376434,-0.40890032052993774,-0.000021423213183879852
1700006759960030500,8.971030517578125,-0.17308834195137024,-0.3258758783340454,0.05240926891565323
1700006759969975800,8.980975830078124,-0.16052940487861633,-0.2241857349872589,0.07180320471525192
1700006759979920600,8.990920654296875,-0.15160147845745087,-0.10699576139450073,0.077032171189785
1700006759989865500,9.000865478515625,-0.13824519515037537,-0.002004099078476429,0.05506428703665733
1700006759999811300,9.010811279296876,-0.12847693264484406,0.1202225461602211,0.013961611315608025
1700006760009756700,9.020756591796875,-0.11576300859451294,0.26526308059692383,-0.03090226650238037
1700006760019701500,9.030701416015624,-0.09127607941627502,0.4134247303009033,-0.09630777686834335
1700006760029646300,9.040646240234375,-0.050859153270721436,0.5606842041015625,-0.1719684600830078
1700006760039591400,9.05059130859375,-0.00884788203984499,0.6095317602157593,-0.22044160962104797
1700006760049536500,9.06053662109375,0.02922120690345764,0.5765655636787415,-0.23522375524044037
1700006760059482600,9.070482666015625,0.06630964577198029,0.5326687097549438,-0.23589719831943512
1700006760069427500,9.080427490234374,0.08713875710964203,0.468832403421402,-0.2305266559123993
1700006760079372300,9.090372314453125,0.09456413239240646,0.41620197892189026,-0.2069537192583084
1700006760089317600,9.100317626953125,0.09971388429403305,0.39855295419692993,-0.18465428054332733
1700006760099262500,9.110262451171875,0.10452644526958466,0.36071038246154785,-0.15110871195793152
1700006760109207600,9.12020751953125,0.10101746022701263,0.2967497706413269,-0.10334810614585876
1700006760119153400,9.1301533203125,0.09999461472034454,0.23070749640464783,-0.04377981275320053
1700006760129098500,9.140098388671875,0.10094296932220459,0.1659572720527649,0.013898132368922234
1700006760139043600,9.150043701171874,0.09974987804889679,0.10666897892951965,0.06128653511404991
1700006760148988400,9.159988525390625,0.08972520381212234,0.05724630877375603,0.08505791425704956
1700006760158933500,9.16993359375,0.07865569740533829,0.02057836949825287,0.08859922736883163
1700006760168878600,9.179878662109376,0.06302640587091446,-0.011584892868995667,0.08037245273590088
1700006760178824400,9.189824462890625,0.037859153002500534,-0.04222502559423447,0.06799375265836716
1700006760188769500,9.19976953125,0.016971714794635773,-0.060448240488767624,0.056465454399585724
1700006760198714400,9.20971435546875,-0.008537143468856812,-0.07366184890270233,0.043197572231292725
1700006760208659500,9.219659423828125,-0.06088290363550186,-0.09683267772197723,0.029793614521622658
1700006760218604500,9.2296044921875,-0.07424760609865189,-0.10970919579267502,0.04333360493183136
1700006760228550400,9.23955029296875,-0.08086689561605453,-0.1000824049115181,0.03196270391345024
1700006760238495500,9.24949560546875,-0.08430879563093185,-0.08972909301519394,0.03731575235724449
1700006760248440600,9.259440673828125,-0.07815343141555786,-0.08438652753829956,0.04032885283231735
1700006760258385400,9.269385498046875,-0.08291038870811462,-0.06895226985216141,0.022625600919127464
1700006760268330500,9.27933056640625,-0.06496947258710861,-0.035534393042325974,-0.004807088058441877
1700006760278275600,9.289275634765625,-0.05057407543063164,0.029646433889865875,-0.059102170169353485
1700006760288220400,9.299220458984376,-0.04294252023100853,0.08171948790550232,-0.11006016284227371
1700006760298166500,9.30916650390625,-0.03424214571714401,0.1375437080860138,-0.15924964845180511
1700006760308111400,9.319111328125,-0.023795096203684807,0.20194000005722046,-0.20603126287460327
1700006760318056700,9.329056640625,-0.0125143863260746,0.2304278016090393,-0.20904548466205597
1700006760328001500,9.33900146484375,-0.006125463172793388,0.25814518332481384,-0.22166754305362701
1700006760337946400,9.3489462890625,0.0020247208885848522,0.2682241201400757,-0.2414853870868683
1700006760347891500,9.358891357421875,0.014265142381191254,0.33046483993530273,-0.2722100019454956
1700006760357837300,9.36883740234375,0.020016316324472427,0.392363041639328,-0.2974909842014313
1700006760367782700,9.37878271484375,0.020230967551469803,0.44303369522094727,-0.3181445896625519
1700006760377727500,9.3887275390625,0.0145682692527771,0.5006768703460693,-0.327025443315506
1700006760387672300,9.39867236328125,0.0052946098148822784,0.5194383263587952,-0.3064280152320862
1700006760397617700,9.40861767578125,-0.008212144486606121,0.503993034362793,-0.2841013967990875
1700006760407562500,9.4185625,-0.02814776822924614,0.47960031032562256,-0.2703981101512909
1700006760417508600,9.428508544921876,-0.046120986342430115,0.4551528990268707,-0.24930912256240845
1700006760427453400,9.438453369140625,-0.05897393450140953,0.413327157497406,-0.22416596114635468
1700006760437398500,9.4483984375,-0.07131132483482361,0.36969172954559326,-0.19584111869335175
1700006760447343600,9.458343505859375,-0.08548787236213684,0.3157440721988678,-0.17418615520000458
1700006760457288400,9.468288330078124,-0.10065081715583801,0.22441466152668,-0.14068399369716644
1700006760467233500,9.478233642578125,-0.11836405098438263,0.1538824439048767,-0.11880479007959366
1700006760477179600,9.4881796875,-0.1237308531999588,0.10171113908290863,-0.10759355127811432
1700006760487124500,9.49812451171875,-0.12618975341320038,0.058726392686367035,-0.10126348584890366
1700006760497069600,9.508069580078125,-0.12299119681119919,0.023042168468236923,-0.09413055330514908
1700006760507014400,9.518014404296874,-0.1172235831618309,0.006661330349743366,-0.08824816346168518
1700006760516959500,9.52795947265625,-0.11369571089744568,0.0031878696754574776,-0.06681665778160095
1700006760526904600,9.537904541015624,-0.11387547105550766,0.002053363248705864,-0.04416913166642189
1700006760536850400,9.547850341796876,-0.11358801275491714,-0.008026843890547752,-0.014804907143115997
1700006760546795500,9.55779541015625,-0.11569669842720032,-0.03216174244880676,0.02718488499522209
1700006760556740600,9.56774072265625,-0.11768300831317902,-0.04442489892244339,0.06057339534163475
1700006760566685400,9.577685546875,-0.1108647882938385,-0.05762325972318649,0.08872673660516739
1700006760576630500,9.587630615234374,-0.10287387669086456,-0.06895783543586731,0.1073453351855278
1700006760586575600,9.59757568359375,-0.08550287783145905,-0.04594971612095833,0.10776611417531967
1700006760596521700,9.607521728515625,-0.06232081726193428,-0.026227004826068878,0.11234183609485626
1700006760606466600,9.617466552734374,-0.03441222384572029,-0.00785811711102724,0.12695273756980896
1700006760616411400,9.627411376953125,-0.008050794713199139,0.014599806629121304,0.13220924139022827
1700006760626356500,9.6373564453125,0.017685461789369583,0.0350709930062294,0.13516774773597717
1700006760636301600,9.647301513671875,0.035844169557094574,0.061249446123838425,0.14744526147842407
1700006760646246400,9.657246337890625,0.04905558004975319,0.10186319053173065,0.1447134017944336
1700006760656192500,9.667192626953126,0.055045466870069504,0.15882942080497742,0.13170447945594788
1700006760666137300,9.677137451171875,0.05713551491498947,0.2227034866809845,0.10036706179380417
1700006760676082700,9.687082763671874,0.06144515424966812,0.26657766103744507,0.07477521151304245
1700006760686027500,9.697027587890625,0.0747135579586029,0.3039815127849579,0.06902198493480682
1700006760695972400,9.706972412109375,0.08869549632072449,0.3428443372249603,0.07754760980606079
1700006760705917700,9.716917724609376,0.1004600077867508,0.40325307846069336,0.08646707236766815
1700006760715863600,9.726863525390625,0.1014692634344101,0.48094722628593445,0.09152916073799133
1700006760725808600,9.73680859375,0.0995003879070282,0.5519230961799622,0.07279276102781296
1700006760735753500,9.74675341796875,0.09011846035718918,0.6234997510910034,0.03335939347743988
1700006760745698600,9.756698486328125,0.07620743662118912,0.6615744233131409,0.0034939059987664223
1700006760755643600,9.7666435546875,0.07735274732112885,0.6508539319038391,0.007410554680973291
1700006760765588500,9.77658837890625,0.0890759825706482,0.6271488666534424,0.02959415502846241
1700006760775534600,9.78653466796875,0.1026340201497078,0.596011757850647,0.07132517546415329
1700006760785479400,9.7964794921875,0.11649950593709946,0.5794737935066223,0.1276097446680069
1700006760795424500,9.806424560546875,0.11843525618314743,0.6143763065338135,0.1866297572851181
1700006760805369600,9.81636962890625,0.10474500805139542,0.6746590733528137,0.23270884156227112
1700006760815314400,9.826314453125,0.07132382690906525,0.7512698173522949,0.2483735978603363
1700006760825259500,9.836259521484376,0.042853839695453644,0.7986516952514648,0.2587665915489197
1700006760835205600,9.84620556640625,0.010775513015687466,0.8528136610984802,0.2508499324321747
1700006760845150500,9.856150390625,-0.02279762737452984,0.8679465651512146,0.23033106327056885
1700006760855095600,9.866095458984375,-0.04737105593085289,0.8505392074584961,0.21597804129123688
1700006760865040600,9.87604052734375,-0.07331770658493042,0.8220676183700562,0.2018832564353943
1700006760874985500,9.8859853515625,-0.10175658762454987,0.8185099959373474,0.18189392983913422
1700006760884930600,9.8959306640625,-0.13054536283016205,0.8257362246513367,0.14963266253471375
1700006760894876400,9.90587646484375,-0.16996274888515472,0.8064677715301514,0.11599472910165787
1700006760904821800,9.91582177734375,-0.2080635279417038,0.7602709531784058,0.08662538975477219
1700006760914766600,9.9257666015625,-0.24709931015968323,0.6821565628051758,0.058992546051740646
1700006760924711400,9.93571142578125,-0.275016188621521,0.5892561674118042,0.028770193457603455
1700006760934656500,9.945656494140625,-0.300699383020401,0.4988325536251068,0.0015770718455314636
1700006760944601600,9.9556015625,-0.3222949504852295,0.4094017744064331,-0.01739715039730072
1700006760954547500,9.96554736328125,-0.3336946666240692,0.3276546597480774,-0.02577667310833931
1700006760964492500,9.975492431640625,-0.3403744101524353,0.23770800232887268,-0.02668827399611473
1700006760974437400,9.985437255859376,-0.3438047170639038,0.1316455453634262,-0.01171674020588398
1700006760984382700,9.9953828125,-0.33686399459838867,0.03543699160218239,0.015607558190822601
1700006760994327600,10.00532763671875,-0.3181951642036438,-0.027721315622329712,0.032427724450826645
1700006761004272400,10.0152724609375,-0.28037187457084656,-0.07074788212776184,0.028995975852012634
1700006761014218500,10.025218505859375,-0.22642867267131805,-0.08101806044578552,0.018007561564445496
1700006761024163600,10.03516357421875,-0.17405493557453156,-0.0527278371155262,0.010208492167294025
1700006761034108400,10.0451083984375,-0.13400126993656158,-0.019062548875808716,-0.01741035282611847
1700006761044053500,10.055053466796876,-0.09311508387327194,0.004140508361160755,-0.04485103115439415
1700006761053998600,10.06499853515625,-0.05013106018304825,0.009810510091483593,-0.060056574642658234
1700006761063943700,10.074943603515624,0.00516015850007534,-0.0030216649174690247,-0.07476627826690674
1700006761073889500,10.0848896484375,0.05515064299106598,-0.021430794149637222,-0.06644776463508606
1700006761083834400,10.09483447265625,0.11127249896526337,-0.034395862370729446,-0.040300581604242325
1700006761093779500,10.104779541015626,0.1464751660823822,-0.022814877331256866,-0.008803526870906353
1700006761103724500,10.114724609375,0.16231004893779755,-0.00037827715277671814,0.0017412593588232994
1700006761113669600,10.124669677734374,0.17849963903427124,0.02983568236231804,-0.010592509061098099
1700006761123614500,10.134614501953125,0.19144445657730103,0.04717978462576866,-0.02877817116677761
1700006761133560300,10.144560302734375,0.20000146329402924,0.04476526379585266,-0.03615422174334526
1700006761143505700,10.154505615234376,0.20118017494678497,0.02147166058421135,-0.03846265375614166
1700006761153450500,10.164450439453125,0.19588841497898102,-0.009678766131401062,-0.04066138714551926
1700006761163395300,10.174395263671874,0.18683339655399323,-0.02819306030869484,-0.053589969873428345
1700006761173340700,10.184340576171875,0.177387073636055,-0.05409799888730049,-0.060876280069351196
1700006761183285500,10.194285400390624,0.16774162650108337,-0.0790795162320137,-0.07625869661569595
1700006761193230600,10.204230712890626,0.15252293646335602,-0.1115330308675766,-0.08885201811790466
1700006761203176400,10.214176513671875,0.14186443388462067,-0.13687832653522491,-0.10607442259788513
1700006761213121500,10.22412158203125,0.136935755610466,-0.1527172178030014,-0.12904934585094452
1700006761223066600,10.234066650390625,0.14606720209121704,-0.17577992379665375,-0.13681484758853912
1700006761233011500,10.244011474609374,0.15598617494106293,-0.20092180371284485,-0.12821510434150696
1700006761242956300,10.253956298828125,0.16552720963954926,-0.23168955743312836,-0.11801626533269882
1700006761252901600,10.263901611328125,0.17035026848316193,-0.2559739947319031,-0.10200344026088715
1700006761262847500,10.273847412109374,0.1748345047235489,-0.2608545124530792,-0.08902612328529358
1700006761272792600,10.28379248046875,0.1890196055173874,-0.2570580244064331,-0.08481632173061371
1700006761282737400,10.2937373046875,0.21527624130249023,-0.2454969882965088,-0.08111639320850372
1700006761292682500,10.3036826171875,0.23528756201267242,-0.23395434021949768,-0.07348453998565674
1700006761302627600,10.313627685546875,0.2595689296722412,-0.21779108047485352,-0.0684538260102272
1700006761312572400,10.323572509765626,0.2749054431915283,-0.20159760117530823,-0.0786077082157135
1700006761322518500,10.3335185546875,0.27971377968788147,-0.19890648126602173,-0.09243936091661453
1700006761332463600,10.343463623046874,0.2800927758216858,-0.2110242247581482,-0.10841859132051468
1700006761342408400,10.353408447265625,0.27515554428100586,-0.2074127197265625,-0.13405762612819672
1700006761352353500,10.363353515625,0.267344206571579,-0.20557564496994019,-0.15180213749408722
1700006761362298400,10.37329833984375,0.25423160195350647,-0.2136082649230957,-0.16521115601062775
1700006761372243500,10.383243408203125,0.2560606896877289,-0.20331677794456482,-0.15976965427398682
1700006761382189600,10.393189453125,0.2553544044494629,-0.20481106638908386,-0.1268489956855774
1700006761392134400,10.403134521484375,0.24110963940620422,-0.2499387115240097,-0.10134149342775345
1700006761402079500,10.41307958984375,0.21810925006866455,-0.2994135916233063,-0.11080104112625122
1700006761412024600,10.423024658203126,0.1935649961233139,-0.29418671131134033,-0.12417910248041153
1700006761421969400,10.432969482421875,0.16447529196739197,-0.30884021520614624,-0.1437448114156723
1700006761431914500,10.44291455078125,0.13698209822177887,-0.3454267680644989,-0.15691718459129333
1700006761441860400,10.4528603515625,0.12182338535785675,-0.3804076611995697,-0.15686285495758057
1700006761451805700,10.4628056640625,0.1136707067489624,-0.4257783591747284,-0.1353956162929535
1700006761461750500,10.47275048828125,0.10719123482704163,-0.4867548942565918,-0.10579697787761688
1700006761471695400,10.4826953125,0.11267638206481934,-0.5517667531967163,-0.08200187981128693
1700006761481640700,10.492640625,0.10942572355270386,-0.6069788932800293,-0.045824434608221054
1700006761491585500,10.50258544921875,0.09124820679426193,-0.6590596437454224,-0.01237558200955391
1700006761501531600,10.51253173828125,0.07062708586454391,-0.7026800513267517,0.00807429850101471
1700006761511476500,10.5224765625,0.048737213015556335,-0.749208927154541,0.015316640958189964
1700006761521421300,10.53242138671875,0.035238444805145264,-0.8021515011787415,0.03972770646214485
1700006761531366700,10.54236669921875,0.02643061801791191,-0.8198527693748474,0.0552683025598526
1700006761541311500,10.5523115234375,0.017893321812152863,-0.8345789909362793,0.06781712174415588
1700006761551256300,10.56225634765625,0.010202068835496902,-0.8461466431617737,0.087831050157547
1700006761561202400,10.572202392578125,-0.009784421883523464,-0.8657464981079102,0.11106766760349274
1700006761571147500,10.5821474609375,-0.04761924222111702,-0.8971048593521118,0.12471882998943329
1700006761581092600,10.592092529296876,-0.08888226002454758,-0.9436079263687134,0.12920892238616943
1700006761591037400,10.602037353515625,-0.13149596750736237,-1.0061086416244507,0.10791298002004623
1700006761600982500,10.611982421875,-0.17822539806365967,-1.0762728452682495,0.07431294023990631
1700006761610927600,10.621927734375,-0.22038647532463074,-1.1069669723510742,0.01824128068983555
1700006761620873500,10.63187353515625,-0.2440481334924698,-1.1199901103973389,-0.013140078634023666
1700006761630818600,10.641818603515626,-0.2528015971183777,-1.134627103805542,0.00624496303498745
1700006761640763600,10.651763671875,-0.24822095036506653,-1.149284839630127,0.04145381599664688
1700006761650708500,10.66170849609375,-0.2373189628124237,-1.1551798582077026,0.0745040774345398
1700006761660653600,10.671653564453125,-0.2158440351486206,-1.1673758029937744,0.11168313771486282
1700006761670598400,10.681598388671874,-0.2022520750761032,-1.185499906539917,0.14758573472499847
1700006761680544500,10.69154443359375,-0.19509749114513397,-1.205911636352539,0.18267475068569183
1700006761690489600,10.701489501953125,-0.19557546079158783,-1.2179259061813354,0.18933042883872986
1700006761700434400,10.711434326171876,-0.20106476545333862,-1.1980550289154053,0.1610436588525772
1700006761710379500,10.721379638671875,-0.2074667066335678,-1.1564204692840576,0.13334442675113678
1700006761720324600,10.73132470703125,-0.20918577909469604,-1.1234627962112427,0.10070418566465378
1700006761730269400,10.74126953125,-0.21041324734687805,-1.0986875295639038,0.06834086775779724
1700006761740215600,10.751215576171875,-0.20146183669567108,-1.0906437635421753,0.02526078000664711
1700006761750160400,10.761160400390626,-0.1762692630290985,-1.1070141792297363,-0.0008480893447995186
1700006761760105700,10.771105712890625,-0.13786274194717407,-1.1284316778182983,-0.01045437715947628
1700006761770050600,10.781050537109374,-0.09083161503076553,-1.1356741189956665,-0.004496908280998468
1700006761779995400,10.790995361328125,-0.044572509825229645,-1.1554502248764038,0.0030981609597802162
1700006761789940500,10.8009404296875,0.006189300678670406,-1.1804932355880737,0.01928875409066677
1700006761799886600,10.810886474609376,0.04497850686311722,-1.1850168704986572,0.029835402965545654
1700006761809831700,10.820831787109375,0.07503701746463776,-1.1781690120697021,0.05649920925498009
1700006761819776500,10.830776611328124,0.10711505264043808,-1.1626209020614624,0.09115065634250641
1700006761829721300,10.840721435546875,0.1466858983039856,-1.1456471681594849,0.106661856174469
1700006761839666700,10.850666748046875,0.1632867157459259,-1.1439834833145142,0.11583618074655533
1700006761849611500,10.860611572265626,0.1588926464319229,-1.144672155380249,0.1419546902179718
1700006761859557600,10.8705576171875,0.1805603951215744,-1.1112414598464966,0.15518127381801605
1700006761869502500,10.88050244140625,0.19000603258609772,-1.0563607215881348,0.13743218779563904
1700006761879447600,10.890447509765625,0.19300714135169983,-1.024594783782959,0.1377275288105011
1700006761889392600,10.900392578125,0.17550025880336761,-1.0106207132339478,0.14569316804409027
1700006761899337500,10.91033740234375,0.16539622843265533,-0.9367682933807373,0.12077556550502777
1700006761909282600,10.920282470703125,0.1492616832256317,-0.8757712841033936,0.1277620643377304
1700006761919228700,10.930228759765624,0.13208509981632233,-0.8545752763748169,0.1376434564590454
1700006761929173500,10.940173583984375,0.10568137466907501,-0.8499298095703125,0.1357729732990265
1700006761939118600,10.95011865234375,0.08154301345348358,-0.794374406337738,0.11408871412277222
1700006761949063400,10.9600634765625,0.05582687631249428,-0.6961415410041809,0.06392637640237808
1700006761959008500,10.970008544921875,0.02184414304792881,-0.6067935228347778,0.00571846216917038
1700006761968953600,10.97995361328125,-0.006986084394156933,-0.523801863193512,-0.03500198945403099
1700006761978899000,10.98989892578125,-0.02955584228038788,-0.45957839488983154,-0.06279260665178299
1700006761988844000,10.999843994140624,-0.05068739503622055,-0.40294963121414185,-0.08516618609428406
1700006761998789000,11.0097890625,-0.061848171055316925,-0.3553032875061035,-0.10090813785791397
1700006762008734000,11.01973388671875,-0.05664858967065811,-0.3088820278644562,-0.12030673027038574
1700006762018678800,11.0296787109375,-0.052934013307094574,-0.2591192424297333,-0.1279449462890625
1700006762028624100,11.0396240234375,-0.04478991776704788,-0.2142452597618103,-0.12523908913135529
1700006762038569000,11.04956884765625,-0.039032965898513794,-0.16703860461711884,-0.11566796153783798
1700006762048515000,11.05951513671875,-0.02702292427420616,-0.13562756776809692,-0.12075220793485641
1700006762058460000,11.0694599609375,-0.018252070993185043,-0.11952024698257446,-0.11710181087255478
1700006762068405000,11.079405029296876,-0.008778235875070095,-0.12434832751750946,-0.11804062873125076
1700006762078350000,11.08935009765625,0.0036755045875906944,-0.12778432667255402,-0.12947198748588562
1700006762088295000,11.099294921875,0.016090817749500275,-0.1292697787284851,-0.15269944071769714
1700006762098240000,11.109239990234375,0.02472984418272972,-0.14759765565395355,-0.17001131176948547
1700006762108186000,11.11918603515625,0.032176896929740906,-0.17540942132472992,-0.18327714502811432
1700006762118131000,11.129130859375,0.03360088914632797,-0.20838414132595062,-0.20425459742546082
1700006762128076000,11.139075927734375,0.04190637543797493,-0.2461349070072174,-0.20597025752067566
1700006762138021000,11.149021240234376,0.052833858877420425,-0.29418712854385376,-0.19228586554527283
1700006762147966000,11.158966064453125,0.05995384603738785,-0.3396914303302765,-0.18202152848243713
1700006762157911000,11.1689111328125,0.060828424990177155,-0.3671717941761017,-0.1700010895729065
1700006762167857000,11.17885693359375,0.05212249234318733,-0.3966398239135742,-0.16147446632385254
1700006762177802000,11.188802001953125,0.0359102301299572,-0.4243617355823517,-0.17453166842460632
1700006762187747000,11.1987470703125,0.009352258406579494,-0.46415022015571594,-0.1949206441640854
1700006762197692000,11.20869189453125,-0.02241792157292366,-0.49198877811431885,-0.2043921798467636
1700006762207637000,11.218636962890624,-0.0524037629365921,-0.5305434465408325,-0.20381106436252594
1700006762217582000,11.22858203125,-0.0806143581867218,-0.5797275304794312,-0.1807427555322647
1700006762227528200,11.238528076171875,-0.09692355990409851,-0.6129677891731262,-0.13972660899162292
1700006762237473000,11.24847314453125,-0.106021448969841,-0.6140167713165283,-0.10707173496484756
1700006762247417900,11.25841796875,-0.11375937610864639,-0.5905465483665466,-0.0797477588057518
1700006762257363200,11.26836328125,-0.12474970519542694,-0.5580562353134155,-0.062467310577631
1700006762267308000,11.27830810546875,-0.13253659009933472,-0.5211818218231201,-0.05106768012046814
1700006762277252900,11.2882529296875,-0.1397598832845688,-0.5046545267105103,-0.03318402171134949
1700006762287199000,11.298198974609376,-0.1422446370124817,-0.4997149407863617,0.001417345367372036
1700006762297144000,11.30814404296875,-0.1456678807735443,-0.518333375453949,0.05007303133606911
1700006762307089200,11.318089111328124,-0.14494912326335907,-0.5613124370574951,0.09367363899946213
1700006762317034000,11.328033935546875,-0.14332139492034912,-0.6008813977241516,0.14782768487930298
1700006762326978800,11.337978759765624,-0.1324606090784073,-0.6306320428848267,0.19678476452827454
1700006762336924200,11.347924072265625,-0.10907033830881119,-0.6409147381782532,0.24442312121391296
1700006762346870000,11.3578701171875,-0.09158384799957275,-0.6337408423423767,0.292659193277359
1700006762356815000,11.367815185546876,-0.0823245719075203,-0.593968391418457,0.3265516459941864
1700006762366760000,11.377760009765625,-0.08610410988330841,-0.5203335881233215,0.3360496759414673
1700006762376705000,11.387705078125,-0.09169355034828186,-0.4175289273262024,0.29748284816741943
1700006762386650000,11.397650146484375,-0.09443879127502441,-0.32658466696739197,0.24201783537864685
1700006762396595000,11.407594970703125,-0.09769077599048615,-0.23535624146461487,0.18260696530342102
1700006762406541000,11.417541015625,-0.10704043507575989,-0.12748093903064728,0.11446914821863174
1700006762416486100,11.427486083984375,-0.12154001742601395,-0.07117532193660736,0.0460813045501709
1700006762426431000,11.437430908203124,-0.14169231057167053,-0.06147375702857971,-0.043809372931718826
1700006762436376000,11.4473759765625,-0.14023450016975403,-0.0891735628247261,-0.07577422261238098
1700006762446321000,11.45732080078125,-0.1254195123910904,-0.159304678440094,-0.04604610800743103
1700006762456266000,11.467265869140626,-0.10803971439599991,-0.21367870271205902,-0.04286310076713562
1700006762466212000,11.477212158203125,-0.09606064110994339,-0.23712708055973053,-0.04029586538672447
1700006762476157000,11.487156982421874,-0.07615351676940918,-0.2449711561203003,-0.031707167625427246
1700006762486102000,11.49710205078125,-0.045360710471868515,-0.25421950221061707,-0.017869651317596436
1700006762496047000,11.507047119140625,-0.0023448020219802856,-0.2588028013706207,0.013198785483837128
1700006762505992000,11.516991943359375,0.047044433653354645,-0.2874884307384491,0.07901005446910858
1700006762515937000,11.52693701171875,0.09277437627315521,-0.32048580050468445,0.13817991316318512
1700006762525883000,11.5368828125,0.12770090997219086,-0.33766767382621765,0.16620182991027832
1700006762535828200,11.546828125,0.15736480057239532,-0.3681156039237976,0.15500377118587494
1700006762545773000,11.55677294921875,0.18442775309085846,-0.40037816762924194,0.12600363790988922
1700006762555718000,11.5667177734375,0.20250369608402252,-0.4398432672023773,0.09585878998041153
1700006762565663000,11.5766630859375,0.21306803822517395,-0.48207247257232666,0.06566378474235535
1700006762575608000,11.586608154296876,0.23273761570453644,-0.530018150806427,0.04785655811429024
1700006762585554200,11.59655419921875,0.24412880837917328,-0.5762468576431274,0.03771112859249115
1700006762595499000,11.6064990234375,0.257053405046463,-0.620355486869812,0.030538704246282578
1700006762605443800,11.61644384765625,0.279450386762619,-0.643290638923645,0.03946218639612198
1700006762615389200,11.62638916015625,0.29093286395072937,-0.6569803953170776,0.048225317150354385
1700006762625334000,11.636333984375,0.2865822911262512,-0.677834689617157,0.06612361967563629
1700006762635278800,11.64627880859375,0.27278897166252136,-0.6942375898361206,0.07329604029655457
1700006762645224200,11.65622412109375,0.2382451444864273,-0.7057697176933289,0.05390584096312523
1700006762655170000,11.666170166015625,0.2022317498922348,-0.7108023166656494,0.03026682697236538
1700006762665115100,11.676115234375,0.17264848947525024,-0.7161839008331299,0.012429198250174522
1700006762675060000,11.68606005859375,0.15065237879753113,-0.7183892726898193,0.011071251705288887
1700006762685005000,11.696005126953125,0.13002701103687286,-0.7153019905090332,0.027817483991384506
1700006762694950100,11.7059501953125,0.10971082746982574,-0.7111200094223022,0.0400424599647522
1700006762704895000,11.71589501953125,0.09161083400249481,-0.6982406377792358,0.04873858392238617
1700006762714841000,11.725841064453125,0.06927437335252762,-0.69157475233078,0.039088886231184006
1700006762724786000,11.735785888671876,0.0465712696313858,-0.7016762495040894,0.03416208177804947
1700006762734731000,11.74573095703125,0.02572191134095192,-0.7187767028808594,0.03125976771116257
1700006762744676000,11.755676025390626,0.008708575740456581,-0.7167166471481323,0.02736874297261238
1700006762754621000,11.765620849609375,-0.002784295938909054,-0.7105072140693665,0.021251196041703224
1700006762764566000,11.77556591796875,-0.004958808422088623,-0.6971995234489441,0.03286536782979965
1700006762774512000,11.78551220703125,-0.010113355703651905,-0.6725119948387146,0.04519980028271675
1700006762784457000,11.79545703125,-0.011913025751709938,-0.6401128172874451,0.05409001559019089
1700006762794402000,11.805402099609376,-0.01957707107067108,-0.6129509806632996,0.06250426918268204
1700006762804347100,11.81534716796875,-0.024916667491197586,-0.5869274139404297,0.06719157844781876
1700006762814292000,11.8252919921875,-0.03650301694869995,-0.5619722604751587,0.0822160616517067
1700006762824237000,11.835237060546875,-0.0477868914604187,-0.5369652509689331,0.09338708221912384
1700006762834183000,11.845182861328125,-0.06018497049808502,-0.5085956454277039,0.12053215503692627
1700006762844128300,11.855128173828126,-0.06573469936847687,-0.46926388144493103,0.15952004492282867
1700006762854073000,11.865072998046875,-0.07152228057384491,-0.4316214323043823,0.19232060015201569
1700006762864018000,11.875017822265624,-0.07953983545303345,-0.39061588048934937,0.2312772572040558
1700006762873963000,11.884962890625,-0.08067114651203156,-0.33806532621383667,0.2704230546951294
1700006762883908000,11.894908203125,-0.09250570088624954,-0.281558632850647,0.29540005326271057
1700006762893854000,11.90485400390625,-0.1090889424085617,-0.22722378373146057,0.2998936176300049
1700006762903799000,11.914799072265625,-0.132648766040802,-0.17634645104408264,0.2922312021255493
1700006762913744000,11.924743896484374,-0.15643829107284546,-0.13138222694396973,0.2778162956237793
1700006762923689200,11.934689208984375,-0.1706169694662094,-0.07323690503835678,0.26233774423599243
1700006762933634000,11.944634033203124,-0.1724810153245926,-0.014116526581346989,0.2522464394569397
1700006762943579000,11.954578857421875,-0.17529837787151337,0.008494776673614979,0.2558020055294037
1700006762953524200,11.964524169921875,-0.1790430098772049,0.014010248705744743,0.26964595913887024
1700006762963470000,11.974469970703124,-0.17837801575660706,0.0241603534668684,0.28183019161224365
1700006762973415000,11.984414794921875,-0.18554098904132843,-0.03847476467490196,0.3187548518180847
1700006762983359500,11.994359375,-0.20364142954349518,-0.1268768012523651,0.34056800603866577
1700006762993304600,12.0043046875,-0.22895099222660065,-0.18902403116226196,0.3442864716053009
1700006763003249700,12.014249755859375,-0.2586974501609802,-0.198099285364151,0.30002737045288086
1700006763013194500,12.024194580078126,-0.27685314416885376,-0.21656200289726257,0.23201151192188263
1700006763023140600,12.034140625,-0.2872370779514313,-0.26121363043785095,0.2103043496608734
1700006763033085700,12.044085693359374,-0.2977059483528137,-0.2994711697101593,0.20888212323188782
1700006763043030500,12.054030517578125,-0.30188870429992676,-0.3421691060066223,0.1934182047843933
1700006763052975600,12.0639755859375,-0.2996264696121216,-0.39521217346191406,0.17354322969913483
1700006763062920400,12.07392041015625,-0.27114129066467285,-0.4457714855670929,0.17266491055488586
1700006763072865500,12.083865478515625,-0.21283705532550812,-0.49533116817474365,0.18300485610961914
1700006763082810600,12.093810546875,-0.14077724516391754,-0.5279178619384766,0.18134623765945435
1700006763092756500,12.103756591796875,-0.05919298157095909,-0.5564389824867249,0.17110463976860046
1700006763102701600,12.11370166015625,0.0132897375151515,-0.6046916842460632,0.16624118387699127
1700006763112646700,12.123646728515626,0.08365334570407867,-0.6660189628601074,0.16728761792182922
1700006763122591500,12.133591552734375,0.1483263522386551,-0.7260823249816895,0.15736575424671173
1700006763132536600,12.14353662109375,0.1901998072862625,-0.7513836622238159,0.13901765644550323
1700006763142481700,12.153481689453125,0.21879230439662933,-0.7587027549743652,0.10929571837186813
1700006763152427800,12.163427734375,0.2391362488269806,-0.7571936249732971,0.07578971982002258
1700006763162372600,12.17337255859375,0.25912541151046753,-0.762283444404602,0.03618158772587776
1700006763172317400,12.1833173828125,0.2825174927711487,-0.7726713418960571,-0.004077982157468796
1700006763182262800,12.1932626953125,0.2950972020626068,-0.7883259057998657,-0.04451461881399155
1700006763192207600,12.20320751953125,0.3048381805419922,-0.8191575407981873,-0.0585726797580719
1700006763202152400,12.21315234375,0.30834048986434937,-0.854300320148468,-0.05829624459147453
1700006763212098600,12.2230986328125,0.3163832724094391,-0.8788495063781738,-0.04210474714636803
1700006763222043400,12.23304345703125,0.3183335065841675,-0.9038403034210205,-0.03819149732589722
1700006763231988700,12.24298876953125,0.3182782232761383,-0.9321673512458801,-0.050973810255527496
1700006763241933600,12.25293359375,0.3246471881866455,-0.9562716484069824,-0.0685671865940094
