time,seconds_elapsed,z,y,x
1700006751006885600,0.0178857421875,-0.09052617102861404,0.13033057749271393,0.13436579704284668
1700006751016831500,0.02783154296875,-0.1139470711350441,0.11867152154445648,0.07096658647060394
1700006751026776600,0.037776611328125,-0.12507136166095734,0.1099667176604271,0.0011448930017650127
1700006751036721400,0.047721435546875,-0.1225309744477272,0.09049075096845627,-0.07675337046384811
1700006751046666500,0.05766650390625,-0.1149313822388649,0.06161169707775116,-0.15752944350242615
1700006751056611600,0.067611572265625,-0.10996458679437637,0.03043966554105282,-0.22860334813594818
1700006751066557400,0.077557373046875,-0.12012161314487457,-0.01677897945046425,-0.29030027985572815
1700006751076502500,0.08750244140625,-0.13213087618350983,-0.061959508806467056,-0.3257621228694916
1700006751086447400,0.097447265625,-0.14141704142093658,-0.09944456815719604,-0.3352791965007782
1700006751096392700,0.107392822265625,-0.14554814994335175,-0.1266050785779953,-0.3226238489151001
1700006751106337500,0.117337646484375,-0.13939997553825378,-0.1351833939552307,-0.3031066060066223
1700006751116282400,0.127282470703125,-0.13026052713394165,-0.1198318600654602,-0.29074394702911377
1700006751126228500,0.137228515625,-0.1217605248093605,-0.08073585480451584,-0.2833086848258972
1700006751136173600,0.147173583984375,-0.12528096139431,-0.045998651534318924,-0.2853691577911377
1700006751146118400,0.157118408203125,-0.13289546966552734,-0.022789202630519867,-0.2777887284755707
1700006751156063500,0.1670634765625,-0.130959615111351,0.0027422569692134857,-0.2546280324459076
1700006751166008600,0.177008544921875,-0.1196928471326828,0.011096592992544174,-0.20848236978054047
1700006751175954700,0.18695458984375,-0.09241168946027756,0.009672867134213448,-0.1476035714149475
1700006751185899500,0.1968994140625,-0.051848284900188446,0.013498498126864433,-0.08743184059858322
1700006751195844400,0.20684423828125,-0.015048191882669926,0.013821539469063282,-0.039454199373722076
1700006751205789400,0.21678955078125,0.011246795766055584,-0.010966630652546883,-0.011718708090484142
1700006751215734500,0.226734619140625,0.016866864636540413,-0.06519445031881332,0.004559065215289593
1700006751225679400,0.236679443359375,0.010333597660064697,-0.13254818320274353,0.02142379991710186
1700006751235625500,0.24662548828125,0.001648230361752212,-0.180032879114151,0.040652088820934296
1700006751245570300,0.2565703125,-0.010659834370017052,-0.2018902450799942,0.06512733548879623
1700006751255515600,0.266515625,-0.019002452492713928,-0.1769782453775406,0.08489358425140381
1700006751265460500,0.27646044921875,-0.021636586636304855,-0.11328820884227753,0.08797379583120346
1700006751275405300,0.2864052734375,-0.019345467910170555,-0.03133608400821686,0.059420984238386154
1700006751285351400,0.296351318359375,-0.01853453554213047,0.06036613881587982,0.005997438915073872
1700006751295296500,0.306296630859375,-0.02233033999800682,0.1332472711801529,-0.06552574783563614
1700006751305241600,0.31624169921875,-0.026986876502633095,0.1736341118812561,-0.13971608877182007
1700006751315186400,0.3261865234375,-0.031717449426651,0.18304811418056488,-0.18941625952720642
1700006751325131500,0.336131591796875,-0.04157061129808426,0.1606980711221695,-0.21220839023590088
1700006751335077600,0.34607763671875,-0.04794755205512047,0.12979714572429657,-0.21380282938480377
1700006751345022500,0.3560224609375,-0.04459116980433464,0.11707016080617905,-0.20796944200992584
1700006751354967600,0.365967529296875,-0.048163268715143204,0.1086985170841217,-0.19847580790519714
1700006751364912400,0.375912353515625,-0.05880073085427284,0.09596168249845505,-0.1905880570411682
1700006751374857500,0.385857421875,-0.05997172370553017,0.08110523968935013,-0.1770104616880417
1700006751384802600,0.395802490234375,-0.05832269415259361,0.07762742042541504,-0.1565997302532196
1700006751394748400,0.40574853515625,-0.04234931990504265,0.07435093075037003,-0.13867932558059692
1700006751404693500,0.415693603515625,-0.025142904371023178,0.06414942443370819,-0.12393605709075928
1700006751414638600,0.425638671875,-0.012547750025987625,0.03616040199995041,-0.1176038607954979
1700006751424583400,0.43558349609375,-0.0015840481501072645,-0.009465406648814678,-0.1236785352230072
1700006751434528500,0.445528564453125,-0.010456102900207043,-0.07354851812124252,-0.13548485934734344
1700006751444474400,0.455474365234375,-0.033599771559238434,-0.11732396483421326,-0.14212171733379364
1700006751454419700,0.465419677734375,-0.04947727173566818,-0.14824779331684113,-0.12604954838752747
1700006751464364500,0.475364501953125,-0.05434233322739601,-0.17699076235294342,-0.0998043566942215
1700006751474309400,0.485309326171875,-0.05132470652461052,-0.20495794713497162,-0.06686984747648239
1700006751484254700,0.495254638671875,-0.048893507570028305,-0.24125789105892181,-0.048526789993047714
1700006751494199600,0.505199462890625,-0.038659777492284775,-0.3020496070384979,-0.04530249908566475
1700006751504145700,0.515145751953125,-0.028850290924310684,-0.38134416937828064,-0.06937427818775177
1700006751514090500,0.525090576171875,-0.030289461836218834,-0.44985345005989075,-0.10210799425840378
1700006751524035300,0.535035400390625,-0.05110472813248634,-0.4944315552711487,-0.12786555290222168
1700006751533980700,0.544980712890625,-0.08860017359256744,-0.5062693357467651,-0.14720863103866577
1700006751543925500,0.554925537109375,-0.15564578771591187,-0.5037917494773865,-0.14294783771038055
1700006751553871600,0.56487158203125,-0.2350790947675705,-0.4933372735977173,-0.10884685814380646
1700006751563816400,0.57481640625,-0.3045356571674347,-0.46921223402023315,-0.04964371770620346
1700006751573761500,0.584761474609375,-0.35741937160491943,-0.4134341776371002,0.041248638182878494
1700006751583706600,0.59470654296875,-0.3838302195072174,-0.29474401473999023,0.15155063569545746
1700006751593651500,0.6046513671875,-0.38468748331069946,-0.1479812115430832,0.24619166553020477
1700006751603596500,0.614596435546875,-0.35428696870803833,-0.00788721814751625,0.3157377243041992
1700006751613542700,0.624542724609375,-0.31091180443763733,0.08822572976350784,0.3435342013835907
1700006751623487500,0.634487548828125,-0.2630856931209564,0.08039230853319168,0.3129880130290985
1700006751633432600,0.6444326171875,-0.17996977269649506,-0.034030936658382416,0.24676211178302765
1700006751643377700,0.654377685546875,-0.08620679378509521,-0.16578923165798187,0.14288844168186188
1700006751653322500,0.664322509765625,-0.012510465458035469,-0.28509965538978577,0.015132347121834755
1700006751663268600,0.6742685546875,0.06557581573724747,-0.3797835409641266,-0.14292758703231812
1700006751673213400,0.68421337890625,0.14326289296150208,-0.39086976647377014,-0.30077260732650757
1700006751683158300,0.694158203125,0.2026364654302597,-0.313850075006485,-0.4359416365623474
1700006751693103600,0.704103515625,0.24078677594661713,-0.164565771818161,-0.5052565336227417
1700006751703048400,0.71404833984375,0.2564525604248047,0.017123593017458916,-0.4962385296821594
1700006751712993500,0.72399365234375,0.23277679085731506,0.18416132032871246,-0.42945629358291626
1700006751722939400,0.733939453125,0.17765948176383972,0.3348275125026703,-0.319004088640213
1700006751732884500,0.743884521484375,0.10520178824663162,0.4341330826282501,-0.19042107462882996
1700006751742829600,0.75382958984375,0.02099636197090149,0.4746496081352234,-0.05794905498623848
1700006751752774400,0.7637744140625,-0.045028991997241974,0.45679232478141785,0.05531225726008415
1700006751762719700,0.7737197265625,-0.08515803515911102,0.41742652654647827,0.15475308895111084
1700006751772665600,0.78366552734375,-0.11216568946838379,0.36427488923072815,0.24043843150138855
1700006751782610400,0.7936103515625,-0.13819488883018494,0.31778275966644287,0.31144285202026367
1700006751792555500,0.803555419921875,-0.1670510321855545,0.28555771708488464,0.38656529784202576
1700006751802500600,0.81350048828125,-0.18930281698703766,0.2560032904148102,0.44767072796821594
1700006751812445400,0.823445556640625,-0.20540082454681396,0.21916164457798004,0.48163506388664246
1700006751822390500,0.833390625,-0.21817441284656525,0.1480560451745987,0.4765620231628418
1700006751832336400,0.84333642578125,-0.21144592761993408,0.0743035227060318,0.43571925163269043
1700006751842281500,0.853281494140625,-0.18545907735824585,0.010874485597014427,0.38015371561050415
1700006751852226600,0.8632265625,-0.12286200374364853,-0.028506476432085037,0.32844018936157227
1700006751862171400,0.87317138671875,-0.055153001099824905,-0.038716502487659454,0.2821560502052307
1700006751872116500,0.883116455078125,0.010507501661777496,-0.02796958200633526,0.257554829120636
1700006751882062300,0.893062255859375,0.06724774837493896,-0.0258044321089983,0.23454539477825165
1700006751892007700,0.903007568359375,0.10607291013002396,-0.029109416529536247,0.220117449760437
1700006751901952500,0.912952392578125,0.1269659399986267,-0.02298228070139885,0.21471309661865234
1700006751911897300,0.9228974609375,0.12165027111768723,-0.0038690404035151005,0.2039848268032074
1700006751921842700,0.9328427734375,0.09438429027795792,0.029168006032705307,0.19932429492473602
1700006751931787500,0.94278759765625,0.0679103434085846,0.08227569609880447,0.2245928943157196
1700006751941733600,0.952733642578125,0.027126425877213478,0.1417267769575119,0.2573780119419098
1700006751951678500,0.962678466796875,-0.01744263991713524,0.20089848339557648,0.29745060205459595
1700006751961623600,0.97262353515625,-0.054656852036714554,0.26056474447250366,0.3525727093219757
1700006751971569400,0.9825693359375,-0.08198754489421844,0.32899734377861023,0.4085499346256256
1700006751981514200,0.99251416015625,-0.10121849924325943,0.39467382431030273,0.4759681224822998
1700006751991460400,1.00246044921875,-0.10797440260648727,0.4504753053188324,0.5330119729042053
1700006752001405200,1.0124052734375,-0.11034888029098511,0.4654039144515991,0.5680866241455078
1700006752011350300,1.022350341796875,-0.09943630546331406,0.4381115734577179,0.6162043213844299
1700006752021295400,1.03229541015625,-0.08334655314683914,0.3926554024219513,0.6876127123832703
1700006752031240200,1.042240234375,-0.076997309923172,0.30791789293289185,0.7802113890647888
1700006752041185300,1.052185302734375,-0.09042523801326752,0.18833182752132416,0.867239236831665
1700006752051131100,1.062131103515625,-0.12626153230667114,0.056125055998563766,0.9318102598190308
1700006752061076200,1.072076171875,-0.16808567941188812,-0.04742930084466934,0.9237595200538635
1700006752071021300,1.082021240234375,-0.19181017577648163,-0.08564326167106628,0.8473795056343079
1700006752080966100,1.091966064453125,-0.17163673043251038,-0.060615409165620804,0.718343198299408
1700006752090911200,1.1019111328125,-0.12401355803012848,-0.0037707698065787554,0.5600215196609497
1700006752100857300,1.111857421875,-0.06396833062171936,0.05282193422317505,0.3961968719959259
1700006752110802200,1.12180224609375,-0.005155880004167557,0.08451434969902039,0.2759421169757843
1700006752120747300,1.131747314453125,0.03407434746623039,0.087943434715271,0.21977443993091583
1700006752130692400,1.1416923828125,0.0477299727499485,0.10868892818689346,0.2686205506324768
1700006752140637200,1.15163720703125,0.07588624209165573,0.16741669178009033,0.42123138904571533
1700006752150582300,1.161582275390625,0.14009132981300354,0.2710690498352051,0.6519849896430969
1700006752160528100,1.171528076171875,0.23176611959934235,0.4051477611064911,0.9288437366485596
1700006752170473200,1.18147314453125,0.30225521326065063,0.48771852254867554,1.212073564529419
1700006752180418300,1.191418212890625,0.32497674226760864,0.4710301160812378,1.5016465187072754
1700006752190363100,1.201363037109375,0.3621824383735657,0.41140803694725037,1.8552378416061401
1700006752200308200,1.21130810546875,0.44543367624282837,0.23260608315467834,2.290280818939209
1700006752210254000,1.221254150390625,0.5808636546134949,-0.06974818557500839,2.8312246799468994
1700006752220199400,1.231199462890625,0.7302712798118591,-0.37634992599487305,3.4700965881347656
1700006752230144300,1.241144287109375,0.8702414035797119,-0.7453711032867432,4.062479019165039
1700006752240089000,1.251089111328125,0.9699320793151855,-1.2114996910095215,4.516247272491455
1700006752250034400,1.261034423828125,1.0271008014678955,-1.6686909198760986,4.815723419189453
1700006752259980300,1.270980224609375,1.0047118663787842,-1.98275887966156,5.013885498046875
1700006752269925400,1.28092529296875,0.8872563242912292,-2.032578706741333,5.167098522186279
1700006752279870200,1.2908701171875,0.6748034954071045,-1.7730543613433838,5.322622299194336
1700006752289815300,1.300815185546875,0.4602842330932617,-1.3584997653961182,5.446486949920654
1700006752299760400,1.310760498046875,0.31467804312705994,-0.865893542766571,5.4404191970825195
1700006752309705200,1.320705322265625,0.4457058310508728,-0.3494192361831665,5.22160005569458
1700006752319651300,1.3306513671875,0.7756310105323792,0.04780187830328941,4.804793357849121
1700006752329596200,1.34059619140625,0.9971625804901123,0.5222919583320618,4.322404384613037
1700006752339541200,1.350541259765625,1.0287392139434814,1.0620529651641846,3.8656373023986816
1700006752349486300,1.360486328125,0.9539541602134705,1.4390982389450073,3.506274461746216
1700006752359431200,1.37043115234375,0.7861944437026978,1.5974314212799072,3.2547364234924316
1700006752369376300,1.380376220703125,0.5886752605438232,1.6324028968811035,3.0590169429779053
1700006752379322400,1.390322265625,0.4362476170063019,1.6479231119155884,2.903747797012329
1700006752389267200,1.40026708984375,0.3428201973438263,1.635850429534912,2.7572860717773438
1700006752399212300,1.41021240234375,0.26922109723091125,1.5174790620803833,2.600358486175537
1700006752409157400,1.420157470703125,0.16395297646522522,1.4092094898223877,2.448529005050659
1700006752419102200,1.430102294921875,0.03581445664167404,1.329095482826233,2.259917736053467
1700006752429048300,1.44004833984375,-0.1031346395611763,1.367607831954956,2.065650224685669
1700006752438993200,1.4499931640625,-0.22168099880218506,1.4651274681091309,1.8895697593688965
1700006752448938500,1.4599384765625,-0.2599860429763794,1.4627941846847534,1.758610725402832
1700006752458883300,1.46988330078125,-0.2013980895280838,1.2734770774841309,1.7112269401550293
1700006752468828200,1.479828125,-0.12761016190052032,0.938075840473175,1.7406543493270874
1700006752478773200,1.489773193359375,-0.15550276637077332,0.7929149270057678,1.8403772115707397
1700006752488719000,1.499718994140625,-0.3684523403644562,0.9555760025978088,1.9878945350646973
1700006752498664400,1.50966455078125,-0.7634150981903076,1.2183456420898438,2.048043727874756
1700006752508609300,1.519609375,-1.12337327003479,1.1065481901168823,1.9398877620697021
1700006752518554000,1.52955419921875,-1.257198691368103,0.6745267510414124,1.7689716815948486
1700006752528499500,1.53949951171875,-1.2207469940185547,-0.2020803987979889,2.2377231121063232
1700006752538445300,1.5494453125,-1.317472219467163,-0.5137346982955933,2.4841554164886475
1700006752548390100,1.55939013671875,-1.4536664485931396,-0.45095252990722656,2.4290759563446045
1700006752558335200,1.569335205078125,-1.404553771018982,-0.18091411888599396,2.288630723953247
1700006752568280300,1.5792802734375,-1.2856955528259277,0.05904441326856613,2.1999435424804688
1700006752578225400,1.589225341796875,-1.1521854400634766,0.14816869795322418,1.8259412050247192
1700006752588170200,1.599170166015625,-0.9277632832527161,0.329393595457077,0.7226098775863647
1700006752598116000,1.6091162109375,-0.6566953063011169,-0.03304210677742958,-0.7161540985107422
1700006752608061400,1.6190615234375,-0.5953853726387024,-0.41458332538604736,-1.4614973068237305
1700006752618006300,1.62900634765625,-0.5852219462394714,-0.3502429723739624,-1.411197304725647
1700006752627951400,1.638951416015625,-0.48029017448425293,-0.20820699632167816,-0.9241408705711365
1700006752637896200,1.648896240234375,-0.28269508481025696,-0.10052021592855453,-0.2379385232925415
1700006752647842000,1.658842041015625,-0.12885572016239166,0.009160741232335567,0.5216024518013
1700006752657787400,1.668787353515625,-0.10503267496824265,0.16604728996753693,1.2380183935165405
1700006752667732200,1.678732177734375,-0.14338378608226776,0.4037240445613861,1.6863335371017456
1700006752677677000,1.688677001953125,-0.2055467665195465,0.6984336972236633,1.5942134857177734
1700006752687622400,1.698622314453125,-0.14798493683338165,0.7667765617370605,0.9774477481842041
1700006752697567200,1.708567138671875,-0.0299051683396101,0.5850831866264343,0.34672173857688904
1700006752707513300,1.718513427734375,0.05994908884167671,0.3421435058116913,0.19305334985256195
1700006752717458200,1.728458251953125,0.07851451635360718,0.12260022014379501,0.31661921739578247
1700006752727403300,1.7384033203125,0.10732965171337128,0.0797124058008194,0.5419050455093384
1700006752737348400,1.748348388671875,0.11962546408176422,0.14809438586235046,0.6820076107978821
1700006752747293200,1.758293212890625,0.0960351824760437,0.22234386205673218,0.7161538600921631
1700006752757239300,1.7682392578125,0.08119738101959229,0.2865598499774933,0.6844020485877991
1700006752767184400,1.778184326171875,0.058271560817956924,0.2891215682029724,0.5580821633338928
1700006752777129200,1.788129150390625,0.06612389534711838,0.28575399518013,0.4166336953639984
1700006752787074300,1.79807421875,0.107789047062397,0.28820890188217163,0.3202347457408905
1700006752797019100,1.80801904296875,0.18268965184688568,0.3046339452266693,0.3792668879032135
1700006752806964200,1.817964111328125,0.20647354423999786,0.2809640169143677,0.5172154307365417
1700006752816910300,1.827910400390625,0.20607221126556396,0.24348215758800507,0.5773602724075317
1700006752826855200,1.837855224609375,0.2024843990802765,0.17842726409435272,0.5267889499664307
1700006752836800300,1.84780029296875,0.1408117115497589,-0.03129001334309578,0.2717697322368622
1700006752846745300,1.857745361328125,0.14353452622890472,0.11493510752916336,0.13407018780708313
1700006752856690200,1.867690185546875,0.34344205260276794,0.15882480144500732,0.11504243314266205
1700006752866636300,1.87763623046875,0.5234506726264954,0.11972746253013611,0.05910273641347885
1700006752876581000,1.8875810546875,0.6122186779975891,0.08472473919391632,-0.03855644538998604
1700006752886526500,1.8975263671875,0.633523166179657,0.01101323589682579,-0.13851739466190338
1700006752896471300,1.90747119140625,0.6322551965713501,-0.013529391027987003,-0.29260122776031494
1700006752906416000,1.917416015625,0.5185222625732422,0.015487613156437874,-0.5697436332702637
1700006752916361200,1.927361328125,0.2853609025478363,-0.043364252895116806,-0.7894237637519836
1700006752926307300,1.937307373046875,0.019904732704162598,-0.43548381328582764,-0.8152964115142822
1700006752936252400,1.94725244140625,-0.06416860222816467,-0.5160718560218811,-0.8877772688865662
1700006752946197200,1.957197265625,0.09987040609121323,-0.5910816788673401,-0.9634557962417603
1700006752956142000,1.96714208984375,0.26826339960098267,-0.7210769653320312,-0.9756389260292053
1700006752966086700,1.977086669921875,0.3657548129558563,-0.8605602979660034,-0.8965070843696594
1700006752976031500,1.987031494140625,0.3347984850406647,-0.862165093421936,-0.8331470489501953
1700006752985977600,1.9969775390625,0.2730374038219452,-0.8585509061813354,-0.7546471953392029
1700006752995922700,2.006922607421875,0.19647657871246338,-0.7912933230400085,-0.6306596994400024
1700006753005867500,2.016867431640625,0.11527119576931,-0.7032774686813354,-0.5294808745384216
1700006753015812600,2.0268125,0.06148892641067505,-0.6837865710258484,-0.5068578720092773
1700006753025757400,2.03675732421875,-0.01212563831359148,-0.7184449434280396,-0.5037720799446106
1700006753035703600,2.04670361328125,-0.0935904011130333,-0.7070591449737549,-0.533996045589447
1700006753045648600,2.056648681640625,-0.19951550662517548,-0.693676769733429,-0.5435882210731506
1700006753055593500,2.066593505859375,-0.2887558937072754,-0.6985692381858826,-0.5344958901405334
1700006753065538600,2.07653857421875,-0.33448877930641174,-0.7445484399795532,-0.5320042371749878
1700006753075483600,2.086483642578125,-0.36073848605155945,-0.7410128712654114,-0.5246187448501587
1700006753085428700,2.0964287109375,-0.38685742020606995,-0.7466135025024414,-0.530561625957489
1700006753095374600,2.10637451171875,-0.3875786066055298,-0.7785583734512329,-0.5396507382392883
1700006753105319400,2.1163193359375,-0.31134191155433655,-0.7928051948547363,-0.5485590100288391
1700006753115264800,2.1262646484375,-0.259528785943985,-0.8277016878128052,-0.5779544115066528
1700006753125209600,2.136209716796875,-0.23592251539230347,-0.836530864238739,-0.6303917765617371
1700006753135154400,2.146154541015625,-0.2711755633354187,-0.8491459488868713,-0.6827127933502197
1700006753145099500,2.156099609375,-0.29866713285446167,-0.831748366355896,-0.6869075298309326
1700006753155045600,2.166045654296875,-0.32252559065818787,-0.7805243134498596,-0.6924871206283569
1700006753164990700,2.17599072265625,-0.29369181394577026,-0.7072189450263977,-0.7167418599128723
1700006753174935600,2.185935546875,-0.25660061836242676,-0.6421040892601013,-0.7434272766113281
1700006753184880400,2.19588037109375,-0.23360130190849304,-0.6017553806304932,-0.7436983585357666
1700006753194825700,2.20582568359375,-0.1816456913948059,-0.5741948485374451,-0.744940459728241
1700006753204771600,2.215771484375,-0.1327894777059555,-0.5474433898925781,-0.7292792201042175
1700006753214716700,2.225716552734375,-0.1264689862728119,-0.5890076160430908,-0.6497047543525696
1700006753224661500,2.23566162109375,-0.1447870135307312,-0.5728414058685303,-0.5103788375854492
1700006753234606600,2.245606689453125,-0.1873757541179657,-0.5145522952079773,-0.37144091725349426
1700006753244551700,2.2555517578125,-0.20953404903411865,-0.47033607959747314,-0.25239044427871704
1700006753254497500,2.26549755859375,-0.21544334292411804,-0.4481911063194275,-0.1380912959575653
1700006753264442600,2.275442626953125,-0.18676242232322693,-0.42204737663269043,-0.016055133193731308
1700006753274387700,2.2853876953125,-0.12740962207317352,-0.4317684471607208,0.0832432210445404
1700006753284332500,2.29533251953125,-0.08972562849521637,-0.4699927866458893,0.20403355360031128
1700006753294277600,2.305277587890625,-0.08922335505485535,-0.5016947984695435,0.32030609250068665
1700006753304222500,2.315222412109375,-0.10549100488424301,-0.5411412715911865,0.3619760572910309
1700006753314168600,2.32516845703125,-0.12591105699539185,-0.5534815788269043,0.25971946120262146
1700006753324113700,2.33511376953125,-0.1389126181602478,-0.5037907361984253,0.0940287634730339
1700006753334058500,2.34505859375,-0.37491023540496826,0.40298473834991455,0.2262946516275406
1700006753344003600,2.355003662109375,-0.3587837219238281,-0.45849326252937317,0.26232829689979553
1700006753353948700,2.36494873046875,-0.5119866132736206,-0.2548706531524658,0.0137214045971632
1700006753363893500,2.3748935546875,-0.6098071336746216,-0.3837204873561859,0.005576126743108034
1700006753373839600,2.384839599609375,-0.6328059434890747,-0.29466864466667175,-0.0664525255560875
1700006753383784400,2.394784423828125,-0.5683324337005615,-0.1995205581188202,-0.09520774334669113
1700006753393729800,2.404729736328125,-0.5036380887031555,-0.1673801988363266,-0.08551090955734253
1700006753403674600,2.414674560546875,-0.45523810386657715,-0.10515811294317245,-0.003612311789765954
1700006753413619500,2.424619384765625,-0.39440855383872986,0.013036706484854221,0.12550200521945953
1700006753423565600,2.434565673828125,-0.3523239493370056,0.1492704451084137,0.07860586047172546
1700006753433510700,2.4445107421875,-0.33486106991767883,0.20509137213230133,0.011318966746330261
1700006753443455700,2.454455810546875,-0.30933016538619995,0.21314476430416107,-0.010253170505166054
1700006753453400600,2.464400634765625,-0.26506307721138,0.21910251677036285,-0.06867147237062454
1700006753463345400,2.474345458984375,-0.23847462236881256,0.2357211858034134,-0.1422322392463684
1700006753473290800,2.484290771484375,-0.2056242674589157,0.2953847646713257,-0.1982763409614563
1700006753483236600,2.494236572265625,-0.10051329433917999,0.45228517055511475,-0.19854797422885895
1700006753493181700,2.504181640625,-0.049424540251493454,0.41254922747612,-0.19665154814720154
1700006753503126500,2.51412646484375,0.031245270743966103,0.4408455789089203,-0.14479899406433105
1700006753513071600,2.524071533203125,0.10131730139255524,0.43083661794662476,-0.1331348866224289
1700006753523016700,2.5340166015625,0.12998782098293304,0.4181820750236511,-0.14228124916553497
1700006753532961500,2.54396142578125,0.13609232008457184,0.35670965909957886,-0.19552741944789886
1700006753542907600,2.55390771484375,0.13058170676231384,0.2706170976161957,-0.26961734890937805
1700006753552852700,2.563852783203125,0.15343350172042847,0.1790565699338913,-0.3254539966583252
1700006753562797600,2.573797607421875,0.1939830482006073,0.05901831388473511,-0.36682140827178955
1700006753572742700,2.58374267578125,0.2092946320772171,-0.04183666408061981,-0.36158111691474915
1700006753582687700,2.593687744140625,0.2345331460237503,-0.09791111946105957,-0.290617972612381
1700006753592633600,2.603633544921875,0.2719652056694031,-0.15391339361667633,-0.2994748651981354
1700006753602578700,2.61357861328125,0.29973104596138,-0.23310701549053192,-0.27347999811172485
1700006753612523500,2.6235234375,0.2976876199245453,-0.27350476384162903,-0.26441141963005066
1700006753622468600,2.633468505859375,0.2981067895889282,-0.2643919587135315,-0.2638548016548157
1700006753632413700,2.64341357421875,0.3041452467441559,-0.24114470183849335,-0.26026806235313416
1700006753642358500,2.653358642578125,0.30044025182724,-0.21849451959133148,-0.2612057626247406
1700006753652304600,2.6633046875,0.2934558391571045,-0.1998414695262909,-0.2694983184337616
1700006753662249500,2.67324951171875,0.28747546672821045,-0.16414472460746765,-0.276009738445282
1700006753672194600,2.683194580078125,0.2950689196586609,-0.11332602798938751,-0.2637259066104889
1700006753682139600,2.6931396484375,0.294645756483078,-0.05531146004796028,-0.23878808319568634
1700006753692084500,2.70308447265625,0.2729510962963104,-0.009913084097206593,-0.23118075728416443
1700006753702029800,2.71302978515625,0.24768410623073578,-0.033843185752630234,-0.23301035165786743
1700006753711975700,2.7229755859375,0.23026755452156067,-0.10477062314748764,-0.2253503054380417
1700006753721920500,2.73292041015625,0.21852754056453705,-0.17214833199977875,-0.21048666536808014
1700006753731865600,2.742865478515625,0.21645587682724,-0.2113436758518219,-0.1826944500207901
1700006753741810700,2.752810791015625,0.2231377512216568,-0.21974940598011017,-0.13123472034931183
1700006753751755800,2.762755859375,0.22813090682029724,-0.1929747760295868,-0.07312028110027313
1700006753761701600,2.77270166015625,0.2222900539636612,-0.1582447588443756,-0.029455093666911125
1700006753771646500,2.782646484375,0.20954176783561707,-0.1355634182691574,-0.022539131343364716
1700006753781591600,2.792591552734375,0.21417726576328278,-0.1384020894765854,-0.07260655611753464
1700006753791536600,2.80253662109375,0.23091816902160645,-0.15680745244026184,-0.14724883437156677
1700006753801481500,2.8124814453125,0.24526408314704895,-0.1804528683423996,-0.20069049298763275
1700006753811426600,2.822426513671875,0.23910951614379883,-0.20192059874534607,-0.21951530873775482
1700006753821372400,2.832372314453125,0.21170932054519653,-0.21094739437103271,-0.24289919435977936
1700006753831317800,2.84231787109375,0.16771656274795532,-0.20194724202156067,-0.3101336359977722
1700006753841262600,2.8522626953125,0.11361018568277359,-0.18233145773410797,-0.3963220417499542
1700006753851207400,2.86220751953125,0.05841803550720215,-0.11803688853979111,-0.5022063851356506
1700006753861152800,2.87215283203125,0.019960392266511917,-0.06285592913627625,-0.5764393210411072
1700006753871098600,2.8820986328125,0.019332418218255043,-0.016102271154522896,-0.5514751672744751
1700006753881043700,2.892043701171875,0.033301230520009995,0.00296303303912282,-0.47579076886177063
1700006753890988500,2.901988525390625,0.08401714265346527,-0.03508581593632698,-0.3676629662513733
1700006753900933600,2.91193359375,0.1460147351026535,-0.08446082472801208,-0.2717430889606476
1700006753910878700,2.921878662109375,0.24227415025234222,-0.15336158871650696,-0.15462979674339294
1700006753920823600,2.931823486328125,0.4073488712310791,-0.17505329847335815,0.01835956610739231
1700006753930769700,2.941769775390625,0.5771554708480835,-0.1693514734506607,0.15417519211769104
1700006753940714500,2.951714599609375,0.7387193441390991,-0.07304970920085907,0.17010489106178284
1700006753950659600,2.96165966796875,0.732093095779419,0.10665081441402435,0.09260423481464386
1700006753960604700,2.971604736328125,0.4854268729686737,0.1237347275018692,0.09226441383361816
1700006753970549800,2.9815498046875,0.3036288619041443,0.09632520377635956,0.1456642597913742
1700006753980494800,2.991494873046875,0.24760393798351288,0.1347932368516922,0.17588022351264954
1700006753990441000,3.00144091796875,0.25515106320381165,0.14472922682762146,0.18747961521148682
1700006754000385800,3.0113857421875,0.27124854922294617,0.18190908432006836,0.19888700544834137
1700006754010330600,3.02133056640625,0.29222121834754944,0.24743029475212097,0.2093753218650818
1700006754020275700,3.031275634765625,0.3535569906234741,0.27857303619384766,0.2743023931980133
1700006754030220800,3.041220703125,0.4055496156215668,0.29824474453926086,0.36824485659599304
1700006754040167000,3.0511669921875,0.38343286514282227,0.2864605188369751,0.4219754636287689
1700006754050111700,3.06111181640625,0.34543436765670776,0.2196284979581833,0.4900874197483063
1700006754060056600,3.071056640625,0.31357309222221375,0.13473650813102722,0.5545433759689331
1700006754070002000,3.081001953125,0.2778262794017792,0.05606966093182564,0.5728994607925415
1700006754079946800,3.09094677734375,0.2405654639005661,-0.008028099313378334,0.5589735507965088
1700006754089891600,3.1008916015625,0.2162766456604004,-0.0645102858543396,0.5307067632675171
1700006754099837700,3.110837646484375,0.199346661567688,-0.1052185669541359,0.4720117449760437
1700006754109782800,3.12078271484375,0.18545401096343994,-0.14432868361473083,0.40530356764793396
1700006754119727900,3.130727783203125,0.1628349870443344,-0.1943308562040329,0.3247850239276886
1700006754129672700,3.140672607421875,0.14911864697933197,-0.2398831695318222,0.2415550947189331
1700006754139617800,3.15061767578125,0.14193157851696014,-0.2834596633911133,0.16960793733596802
1700006754149563000,3.16056298828125,0.12917156517505646,-0.32748597860336304,0.10835576802492142
1700006754159508700,3.1705087890625,0.11190097033977509,-0.3474154770374298,0.06079117953777313
1700006754169453800,3.180453857421875,0.10206564515829086,-0.3602828085422516,0.01549400482326746
1700006754179398700,3.190398681640625,0.08598894625902176,-0.356026291847229,-0.020319918170571327
1700006754189343700,3.20034375,0.06704933941364288,-0.34143614768981934,-0.05543875694274902
1700006754199288800,3.210288818359375,0.05012495070695877,-0.3197183310985565,-0.10704629123210907
1700006754209234700,3.220234619140625,0.02546035312116146,-0.315235435962677,-0.16595035791397095
1700006754219179800,3.2301796875,-0.016884973272681236,-0.3266716003417969,-0.20092032849788666
1700006754229124900,3.240124755859375,-0.05463368445634842,-0.3532025218009949,-0.2266717553138733
1700006754239069700,3.250069580078125,-0.0819782242178917,-0.38145601749420166,-0.23224735260009766
1700006754249014800,3.260014892578125,-0.09680910408496857,-0.4165777862071991,-0.22503603994846344
1700006754258960000,3.2699599609375,-0.12130645662546158,-0.4234330356121063,-0.194919154047966
1700006754268906000,3.279906005859375,-0.141962468624115,-0.4041232466697693,-0.14280694723129272
1700006754278850800,3.289850830078125,-0.15873637795448303,-0.37597203254699707,-0.08216197788715363
1700006754288795600,3.299795654296875,-0.17805175483226776,-0.36143943667411804,-0.03906351327896118
1700006754298740700,3.30974072265625,-0.19472794234752655,-0.3753717541694641,-0.021505558863282204
1700006754308685800,3.319685791015625,-0.2069808840751648,-0.39510098099708557,-0.03298458084464073
1700006754318630700,3.329630615234375,-0.21888761222362518,-0.40452858805656433,-0.05435352027416229
1700006754328576800,3.33957666015625,-0.24019502103328705,-0.4101355969905853,-0.07654137909412384
1700006754338521600,3.349521484375,-0.2605498433113098,-0.38944870233535767,-0.09595369547605515
1700006754348467000,3.359467041015625,-0.2784009873867035,-0.3561650216579437,-0.12654195725917816
1700006754358411800,3.369411865234375,-0.29753634333610535,-0.3122199475765228,-0.17780408263206482
1700006754368356600,3.379356689453125,-0.3102886378765106,-0.2694897949695587,-0.23900964856147766
1700006754378302700,3.389302734375,-0.3299824297428131,-0.22464056313037872,-0.302232027053833
1700006754388247800,3.399247802734375,-0.34823521971702576,-0.1995927393436432,-0.3719083070755005
1700006754398193000,3.40919287109375,-0.36466184258461,-0.2097335159778595,-0.42606237530708313
1700006754408137700,3.4191376953125,-0.3870829939842224,-0.22332149744033813,-0.4649626314640045
1700006754418082800,3.429082763671875,-0.40906447172164917,-0.19287703931331635,-0.5143682360649109
1700006754428028000,3.43902783203125,-0.418605774641037,-0.1813167929649353,-0.532065212726593
1700006754437973800,3.448973876953125,-0.41687631607055664,-0.1714300811290741,-0.5286667943000793
1700006754447918600,3.458918701171875,-0.41895145177841187,-0.21445557475090027,-0.5064687728881836
1700006754457863700,3.46886376953125,-0.39889171719551086,-0.2891492545604706,-0.4479980170726776
1700006754467808800,3.478808837890625,-0.36603736877441406,-0.3537234365940094,-0.3797726333141327
1700006754477753900,3.48875390625,-0.35139158368110657,-0.4183000326156616,-0.3270401656627655
1700006754487699700,3.49869970703125,-0.3375074565410614,-0.472139835357666,-0.2848399877548218
1700006754497644500,3.50864453125,-0.3091815412044525,-0.5323768258094788,-0.22823290526866913
1700006754507590000,3.51858984375,-0.27642759680747986,-0.5995936989784241,-0.13222381472587585
1700006754517534700,3.52853466796875,-0.233789324760437,-0.6679932475090027,-0.03688957542181015
1700006754527479600,3.5384794921875,-0.19283603131771088,-0.7227606177330017,0.04219192638993263
1700006754537425000,3.5484248046875,-0.15809881687164307,-0.7817344665527344,0.11288527399301529
1700006754547370800,3.558370849609375,-0.11912772059440613,-0.821225643157959,0.1761726289987564
1700006754557315800,3.56831591796875,-0.07583297789096832,-0.8449709415435791,0.2222365289926529
1700006754567260700,3.5782607421875,-0.05126292258501053,-0.8645654320716858,0.27400705218315125
1700006754577205800,3.588205810546875,-0.049794189631938934,-0.8916910290718079,0.32050663232803345
1700006754587150800,3.59815087890625,-0.058642275631427765,-0.8980906009674072,0.3192389905452728
1700006754597095700,3.608095703125,-0.07548889517784119,-0.8776095509529114,0.29936113953590393
1700006754607041800,3.618041748046875,-0.09600508958101273,-0.8249170780181885,0.2844066917896271
1700006754616986600,3.627986572265625,-0.10924766212701797,-0.7493706345558167,0.27391329407691956
1700006754626931700,3.637931640625,-0.11147566139698029,-0.6540151238441467,0.232034832239151
1700006754636876800,3.647876708984375,-0.11498357355594635,-0.5681233406066895,0.2022724151611328
1700006754646821600,3.657821533203125,-0.1436157524585724,-0.4747585356235504,0.1926858276128769
1700006754656766700,3.6677666015625,-0.20399999618530273,-0.3798551857471466,0.15239620208740234
1700006754666712800,3.677712890625,-0.2634388208389282,-0.2840365171432495,0.09928344190120697
1700006754676657700,3.68765771484375,-0.3266092836856842,-0.2060016393661499,0.04645777866244316
1700006754686602800,3.697602783203125,-0.38190555572509766,-0.15649746358394623,0.030809311196208
1700006754696547800,3.7075478515625,-0.4233645796775818,-0.0878283903002739,0.0325414314866066
1700006754706492700,3.71749267578125,-0.4603913128376007,0.043362122029066086,0.03214648365974426
1700006754716438800,3.727438720703125,-0.46748384833335876,0.2582230269908905,-0.009241435676813126
1700006754726383600,3.737383544921875,-0.46352237462997437,0.5287724733352661,-0.08919166028499603
1700006754736329000,3.747328857421875,-0.4541914761066437,0.7651293873786926,-0.1927899569272995
1700006754746273800,3.757273681640625,-0.4405137300491333,0.9455246925354004,-0.30960285663604736
1700006754756218600,3.767218505859375,-0.40118762850761414,1.043947696685791,-0.4096570312976837
1700006754766163700,3.777163818359375,-0.36899879574775696,1.0578869581222534,-0.4695296883583069
1700006754776109600,3.787109619140625,-0.3319084346294403,1.0309789180755615,-0.4929977059364319
1700006754786055000,3.797054931640625,-0.3063008189201355,1.019084095954895,-0.48713555932044983
1700006754795999700,3.806999755859375,-0.315310001373291,1.0311660766601562,-0.4528753459453583
1700006754805944600,3.816944580078125,-0.31702402234077454,1.0466047525405884,-0.38106879591941833
1700006754815890000,3.826889892578125,-0.30692264437675476,1.0465517044067383,-0.30145543813705444
1700006754825834800,3.836834716796875,-0.27298787236213684,1.014237403869629,-0.24744920432567596
1700006754835780900,3.84678076171875,-0.21281027793884277,0.9583771228790283,-0.2048620730638504
1700006754845725700,3.8567255859375,-0.15289926528930664,0.9026539325714111,-0.17693430185317993
1700006754855670800,3.8666708984375,-0.10022833198308945,0.8535889387130737,-0.16005705296993256
1700006754865616000,3.876615966796875,-0.06125776469707489,0.8060834407806396,-0.14750929176807404
1700006754875560700,3.886560791015625,-0.017849836498498917,0.7764866948127747,-0.13379694521427155
1700006754885506800,3.8965068359375,0.023503461852669716,0.7587686777114868,-0.12209395319223404
1700006754895452000,3.906451904296875,0.05251513794064522,0.7410045862197876,-0.11284718662500381
1700006754905395700,3.916395751953125,0.08425096422433853,0.7132704257965088,-0.09970209002494812
1700006754915341800,3.926341796875,0.1129571795463562,0.6978392601013184,-0.094695083796978
1700006754925286700,3.93628662109375,0.14920572936534882,0.6911749839782715,-0.10184992849826813
1700006754935231700,3.946231689453125,0.21015749871730804,0.6774147152900696,-0.1070857048034668
1700006754945176800,3.9561767578125,0.2938031256198883,0.6429592370986938,-0.0942724421620369
1700006754955121700,3.96612158203125,0.36634576320648193,0.580561637878418,-0.062010109424591064
1700006754965066800,3.976066650390625,0.3858422338962555,0.5343579649925232,-0.04619758948683739
1700006754975013400,3.986013427734375,0.325843870639801,0.4584123194217682,-0.05143789201974869
1700006754984958500,3.99595849609375,0.26000601053237915,0.3993431329727173,-0.06800887733697891
1700006754994903600,4.005903564453125,0.21168987452983856,0.3044307231903076,-0.05814559385180473
1700006755004848400,4.015848388671875,0.19682252407073975,0.2167549431324005,-0.03988483175635338
1700006755014793500,4.02579345703125,0.2021365910768509,0.20873136818408966,-0.04783836379647255
1700006755024739600,4.035739501953125,0.22106526792049408,0.2311416119337082,-0.07990175485610962
1700006755034684400,4.045684326171875,0.24663907289505005,0.25451377034187317,-0.1110231876373291
1700006755044629500,4.05562939453125,0.2603820562362671,0.30751335620880127,-0.14950346946716309
1700006755054574600,4.06557470703125,0.2592126429080963,0.3769904375076294,-0.19986650347709656
1700006755064519400,4.07551953125,0.24982129037380219,0.435080885887146,-0.27812615036964417
1700006755074464500,4.085464599609375,0.24072952568531036,0.458053857088089,-0.37360021471977234
1700006755084410400,4.095410400390625,0.23050831258296967,0.4599723815917969,-0.42515847086906433
1700006755094355500,4.10535546875,0.21979068219661713,0.472667932510376,-0.440575510263443
1700006755104300500,4.115300537109375,0.20956307649612427,0.4970899224281311,-0.4480949640274048
1700006755114245400,4.125245361328125,0.21213090419769287,0.5263479351997375,-0.41505178809165955
1700006755124190500,4.1351904296875,0.21283210813999176,0.5341086983680725,-0.3259725272655487
1700006755134135600,4.145135498046875,0.2220863252878189,0.5544187426567078,-0.20603226125240326
1700006755144081700,4.15508154296875,0.24307602643966675,0.5432534217834473,-0.0815153643488884
1700006755154026500,4.165026611328125,0.280792772769928,0.49985164403915405,0.02401052787899971
1700006755163971300,4.174971435546875,0.3267786502838135,0.4319639205932617,0.10129759460687637
1700006755173916700,4.184916748046875,0.35920795798301697,0.4005109369754791,0.1387496292591095
1700006755183861500,4.194861572265625,0.36143118143081665,0.3661039471626282,0.16902311146259308
1700006755193806300,4.204806396484375,0.36087536811828613,0.3482748866081238,0.23067475855350494
1700006755203752400,4.21475244140625,0.34571319818496704,0.36375823616981506,0.3353561460971832
1700006755213697500,4.224697509765625,0.32954806089401245,0.37497439980506897,0.46265366673469543
1700006755223642600,4.234642578125,0.3495872914791107,0.403962641954422,0.5412212014198303
1700006755233587500,4.24458740234375,0.40927672386169434,0.5048946142196655,0.5039629936218262
1700006755243532500,4.254532470703125,0.43702206015586853,0.5556890368461609,0.37634220719337463
1700006755253478400,4.264478515625,0.4230508506298065,0.4908440113067627,0.2911631464958191
1700006755263423500,4.274423583984375,0.37971216440200806,0.3675047755241394,0.27895280718803406
1700006755273368300,4.284368408203125,0.33261391520500183,0.2487586885690689,0.2962985038757324
1700006755283313400,4.2943134765625,0.2948468029499054,0.1785079538822174,0.3424795866012573
1700006755293258500,4.304258544921875,0.24564625322818756,0.16066451370716095,0.38925108313560486
1700006755303203600,4.31420361328125,0.20336537063121796,0.13110502064228058,0.4293194115161896
1700006755313149400,4.3241494140625,0.18130773305892944,0.0730489119887352,0.46844685077667236
1700006755323094300,4.33409423828125,0.16496925055980682,0.002520149340853095,0.47737348079681396
1700006755333039600,4.34403955078125,0.15798670053482056,-0.07180920988321304,0.4507269561290741
1700006755342984400,4.353984375,0.15342764556407928,-0.14748398959636688,0.40802663564682007
1700006755352930600,4.3639306640625,0.13741432130336761,-0.23241938650608063,0.3478679656982422
1700006755362875400,4.37387548828125,0.11048256605863571,-0.3016943335533142,0.26547083258628845
1700006755372820500,4.383820556640625,0.08444750308990479,-0.3622026741504669,0.18207339942455292
1700006755382765600,4.393765625,0.060192499309778214,-0.42510122060775757,0.11741957068443298
1700006755392710400,4.40371044921875,0.053706370294094086,-0.48494911193847656,0.05728832259774208
1700006755402655500,4.413655517578125,0.07744232565164566,-0.5351718068122864,0.014575746841728687
1700006755412601300,4.423601318359375,0.1102607250213623,-0.5733237266540527,-0.016768326982855797
1700006755422546400,4.43354638671875,0.13767504692077637,-0.6076947450637817,-0.028777852654457092
1700006755432491500,4.443491455078125,0.14692579209804535,-0.6468842029571533,-0.04075675085186958
1700006755442436400,4.453436279296875,0.1433401107788086,-0.6751970648765564,-0.06842432916164398
1700006755452381400,4.46338134765625,0.1317116916179657,-0.6954629421234131,-0.09781604260206223
1700006755462327600,4.47332763671875,0.11409248411655426,-0.7124022245407104,-0.1361573040485382
1700006755472272400,4.4832724609375,0.08739802241325378,-0.7346497774124146,-0.16273058950901031
1700006755482217500,4.493217529296875,0.06537900865077972,-0.7695994973182678,-0.17807838320732117
1700006755492162600,4.50316259765625,0.06641977280378342,-0.7652366757392883,-0.21226458251476288
1700006755502107400,4.513107421875,0.027774639427661896,-0.7786241173744202,-0.20629377663135529
1700006755512052500,4.523052490234375,0.01992843486368656,-0.7664297819137573,-0.16246481239795685
1700006755521998300,4.532998291015625,0.015178420580923557,-0.7790979146957397,-0.12544260919094086
1700006755531943700,4.542943603515625,0.010218814946711063,-0.8013808727264404,-0.10473520308732986
1700006755541888500,4.552888427734375,0.009897371754050255,-0.8160327672958374,-0.09411957114934921
1700006755551833300,4.562833251953125,0.014747254550457,-0.8532216548919678,-0.08581610769033432
1700006755561778400,4.5727783203125,0.024172713980078697,-0.8865721821784973,-0.08930990844964981
1700006755571723500,4.5827236328125,0.03292306140065193,-0.9213738441467285,-0.11183492094278336
1700006755581669600,4.592669677734375,0.0422917976975441,-0.9525261521339417,-0.16235029697418213
1700006755591614500,4.602614501953125,0.02117319591343403,-0.97984778881073,-0.21391655504703522
1700006755601559300,4.612559326171875,0.014721687883138657,-1.003153681755066,-0.27416178584098816
1700006755611504600,4.622504638671875,0.012798353098332882,-1.0239337682724,-0.3368704319000244
1700006755621449500,4.632449462890625,0.006509564816951752,-1.0420161485671997,-0.3952788710594177
1700006755631394300,4.642394287109375,0.0027569043450057507,-1.0306107997894287,-0.4581420123577118
1700006755641340400,4.65234033203125,0.004391818773001432,-1.0027424097061157,-0.5115314722061157
1700006755651285500,4.662285400390625,-0.0035979305393993855,-0.9701581597328186,-0.5458945035934448
1700006755661230600,4.672230712890625,-0.010307498276233673,-0.9444106817245483,-0.5651164054870605
1700006755671175400,4.682175537109375,-0.04675418883562088,-0.905501663684845,-0.5910214781761169
1700006755681120500,4.69212060546875,-0.11638040840625763,-0.8570480942726135,-0.6254976987838745
1700006755691066600,4.702066650390625,-0.19826196134090424,-0.8014921545982361,-0.6348254084587097
1700006755701011500,4.712011474609375,-0.26607003808021545,-0.7111718654632568,-0.634717583656311
1700006755710956500,4.72195654296875,-0.3059934675693512,-0.6103888154029846,-0.5939429998397827
1700006755720901400,4.7319013671875,-0.30885744094848633,-0.5340431332588196,-0.4880181550979614
1700006755730846500,4.741846435546875,-0.29245316982269287,-0.4902852773666382,-0.3299552798271179
1700006755740791600,4.75179150390625,-0.275145560503006,-0.46768462657928467,-0.16948463022708893
1700006755750737400,4.7617373046875,-0.26709482073783875,-0.4554612636566162,-0.01372433453798294
1700006755760682500,4.7716826171875,-0.2643253803253174,-0.4355093836784363,0.12519706785678864
1700006755770627600,4.781627685546875,-0.2667003870010376,-0.4265313446521759,0.25688451528549194
1700006755780572400,4.791572509765625,-0.2676370441913605,-0.4202635884284973,0.3850102722644806
1700006755790517500,4.801517578125,-0.275709867477417,-0.41849151253700256,0.5064261555671692
1700006755800462600,4.811462646484375,-0.29188430309295654,-0.35247015953063965,0.5827145576477051
1700006755810408700,4.82140869140625,-0.32713791728019714,-0.21255673468112946,0.5806751251220703
1700006755820353500,4.831353515625,-0.3707197308540344,-0.06972608715295792,0.5389513373374939
1700006755830298400,4.84129833984375,-0.4255952537059784,0.035293541848659515,0.45522505044937134
1700006755840243500,4.851243408203125,-0.4704785645008087,0.08336439728736877,0.3690134584903717
1700006755850188500,4.8611884765625,-0.5221729278564453,0.07660023868083954,0.31587833166122437
1700006755860134400,4.871134521484375,-0.5661872625350952,0.0547732338309288,0.27038806676864624
1700006755870079500,4.88107958984375,-0.591316282749176,0.06398830562829971,0.22115501761436462
1700006755880024300,4.8910244140625,-0.5968892574310303,0.11732156574726105,0.17736013233661652
1700006755889969700,4.9009697265625,-0.597144603729248,0.2239534705877304,0.13456207513809204
1700006755899914500,4.91091455078125,-0.6071006059646606,0.32936805486679077,0.09501972049474716
1700006755909859300,4.920859375,-0.6132284998893738,0.4060194194316864,0.05832908675074577
1700006755919805400,4.930805419921875,-0.6061639785766602,0.464744508266449,0.030182136222720146
1700006755929750500,4.94075048828125,-0.5833086967468262,0.5297471880912781,-0.002722017001360655
1700006755939695400,4.9506953125,-0.5284640789031982,0.592880368232727,-0.049974218010902405
1700006755949640400,4.960640380859375,-0.4655351936817169,0.6506326198577881,-0.10440683364868164
1700006755959585500,4.97058544921875,-0.4063571095466614,0.690528929233551,-0.14307940006256104
1700006755969531000,4.98053076171875,-0.3568742275238037,0.7232804298400879,-0.1587049514055252
1700006755979476700,4.990476806640625,-0.3086366653442383,0.7467362284660339,-0.15479862689971924
1700006755989421600,5.000421630859375,-0.25964489579200745,0.7607412934303284,-0.14437821507453918
1700006755999366700,5.01036669921875,-0.2142297327518463,0.7662947773933411,-0.13271090388298035
1700006756009311700,5.020311767578125,-0.17522801458835602,0.7597998380661011,-0.10759890079498291
1700006756019256800,5.0302568359375,-0.14304104447364807,0.7559545040130615,-0.08997543156147003
1700006756029201700,5.04020166015625,-0.11494043469429016,0.7584741115570068,-0.08885770291090012
1700006756039147500,5.0501474609375,-0.0853966549038887,0.7221411466598511,-0.07943783700466156
1700006756049092900,5.0600927734375,-0.04231176897883415,0.6915947198867798,-0.06366952508687973
1700006756059037700,5.07003759765625,0.006136455573141575,0.6448935270309448,-0.035051193088293076
1700006756068982800,5.079982666015625,0.059418052434921265,0.6457931399345398,-0.018562765792012215
1700006756078928000,5.089927978515625,0.1095976009964943,0.6842334270477295,-0.013878265395760536
1700006756088872700,5.099872802734375,0.16478122770786285,0.7245241403579712,-0.011306184343993664
1700006756098818800,5.10981884765625,0.2031099796295166,0.7658151388168335,0.005891445092856884
1700006756108763600,5.119763671875,0.26181164383888245,0.7949948310852051,0.034989140927791595
1700006756118708700,5.129708740234375,0.30473753809928894,0.8120361566543579,0.05296095088124275
1700006756128653800,5.13965380859375,0.32413092255592346,0.8222307562828064,0.04923758655786514
1700006756138598700,5.1495986328125,0.3399061858654022,0.822856605052948,0.02732003852725029
1700006756148544800,5.159544677734375,0.3263709247112274,0.819722592830658,-0.016475912183523178
1700006756158489600,5.169489501953125,0.2906707227230072,0.826230525970459,-0.06820808351039886
1700006756168434700,5.1794345703125,0.26084810495376587,0.8434819579124451,-0.11182986199855804
1700006756178379800,5.1893798828125,0.22549118101596832,0.8552432656288147,-0.1571187824010849
1700006756188324600,5.19932470703125,0.20724773406982422,0.8455621600151062,-0.15714780986309052
1700006756198269700,5.209269775390625,0.21019397675991058,0.8272180557250977,-0.13826173543930054
1700006756208215800,5.2192158203125,0.22262509167194366,0.8293538689613342,-0.12872734665870667
1700006756218160600,5.22916064453125,0.23996412754058838,0.8378635048866272,-0.10944660007953644
1700006756228105700,5.239105712890625,0.22782251238822937,0.8425661325454712,-0.11720065772533417
1700006756238050800,5.24905078125,0.2248019576072693,0.8362996578216553,-0.11845367401838303
1700006756247995600,5.25899560546875,0.23175492882728577,0.8057308793067932,-0.0825129821896553
1700006756257940700,5.268940673828125,0.2364673912525177,0.7462552785873413,-0.04023370519280434
1700006756267886600,5.278886474609375,0.23370836675167084,0.670811116695404,0.003065032185986638
1700006756277831700,5.288831787109375,0.22129963338375092,0.6153348088264465,0.030470557510852814
1700006756287776800,5.29877685546875,0.21617144346237183,0.6012863516807556,0.028772525489330292
1700006756297721600,5.3087216796875,0.20338746905326843,0.5947635173797607,0.019543074071407318
1700006756307666700,5.318666748046875,0.19500437378883362,0.5892438292503357,0.021762020885944366
1700006756317612500,5.328612548828125,0.1912732869386673,0.6023707985877991,0.03303385153412819
1700006756327558000,5.338557861328125,0.20333340764045715,0.6280189156532288,0.05733998864889145
1700006756337502700,5.348502685546875,0.22295984625816345,0.6713981032371521,0.10137748718261719
1700006756347447600,5.358447509765625,0.24342970550060272,0.7180324196815491,0.15557894110679626
1700006756357393000,5.368392822265625,0.26869404315948486,0.7556445002555847,0.22904810309410095
1700006756367337700,5.378337646484375,0.2982303500175476,0.7849648594856262,0.3006434440612793
1700006756377283800,5.388283935546875,0.33037152886390686,0.7945826053619385,0.3538350462913513
1700006756387228700,5.398228759765625,0.358345627784729,0.7606118321418762,0.380424827337265
1700006756397173800,5.408173828125,0.38514262437820435,0.6689777970314026,0.4189397394657135
1700006756407118800,5.418118896484375,0.4197767674922943,0.5784452557563782,0.4975131154060364
1700006756417063700,5.428063720703125,0.44795194268226624,0.5380687713623047,0.5647110342979431
1700006756427008500,5.438008544921875,0.46651098132133484,0.5363034009933472,0.6176602840423584
1700006756436954600,5.44795458984375,0.4705832302570343,0.5620811581611633,0.6531543731689453
1700006756446899700,5.457899658203125,0.4715970754623413,0.6014871597290039,0.6753390431404114
1700006756456844800,5.4678447265625,0.4634387493133545,0.6333564519882202,0.6860478520393372
1700006756466789600,5.47778955078125,0.4700188934803009,0.656234860420227,0.7014358639717102
1700006756476734700,5.487734619140625,0.47220829129219055,0.689117968082428,0.7091127038002014
1700006756486679800,5.4976796875,0.3952442705631256,0.7114254236221313,0.6711483001708984
1700006756496625700,5.507625732421875,0.3039100766181946,0.6817796230316162,0.6731882691383362
1700006756506570800,5.51757080078125,0.17713482677936554,0.6473444104194641,0.6934155225753784
1700006756516515800,5.527515869140625,0.042704321444034576,0.5652871131896973,0.6981266140937805
1700006756526460700,5.537460693359375,-0.043666254729032516,0.47541260719299316,0.737914502620697
1700006756536405800,5.54740576171875,-0.06633827835321426,0.36507436633110046,0.8111258745193481
1700006756546350600,5.5573505859375,-0.05337188020348549,0.30301499366760254,0.8596646785736084
1700006756556296700,5.567296630859375,-0.0717889666557312,0.2693321406841278,0.8459006547927856
1700006756566241800,5.57724169921875,-0.1331426054239273,0.2584794759750366,0.7677832245826721
1700006756576186600,5.5871865234375,-0.20286868512630463,0.22242960333824158,0.6839506030082703
1700006756586131700,5.597131591796875,-0.2431577891111374,0.20155921578407288,0.6211458444595337
1700006756596076800,5.607076904296875,-0.24144324660301208,0.15133360028266907,0.5646790862083435
1700006756606023000,5.61702294921875,-0.24266377091407776,0.12800350785255432,0.46341371536254883
1700006756615967700,5.6269677734375,-0.24394182860851288,0.13449016213417053,0.36005938053131104
1700006756625912600,5.63691259765625,-0.24897652864456177,0.13824868202209473,0.25983768701553345
1700006756635858000,5.64685791015625,-0.25970613956451416,0.13621030747890472,0.1792890578508377
1700006756645802800,5.656802734375,-0.26077035069465637,0.1352696716785431,0.1275734007358551
1700006756655747600,5.66674755859375,-0.25940120220184326,0.16133403778076172,0.08733943104743958
1700006756665693700,5.676693603515625,-0.25404345989227295,0.19997090101242065,0.04667908698320389
1700006756675638800,5.686638671875,-0.2544938027858734,0.24159398674964905,0.025015071034431458
1700006756685584000,5.696583984375,-0.2603037655353546,0.2820066511631012,0.016768593341112137
1700006756695528700,5.70652880859375,-0.2697310745716095,0.3397333323955536,0.011457185260951519
1700006756705473500,5.7164736328125,-0.26701146364212036,0.41260141134262085,0.00487305223941803
1700006756715419000,5.7264189453125,-0.25143834948539734,0.47612181305885315,0.007127151824533939
1700006756725364700,5.73636474609375,-0.23224815726280212,0.522209107875824,0.022054169327020645
1700006756735309800,5.746309814453125,-0.2231915444135666,0.5412081480026245,0.04860322177410126
1700006756745254700,5.756254638671875,-0.2202998846769333,0.5505275726318359,0.07525347173213959
1700006756755199700,5.76619970703125,-0.21189413964748383,0.5776236653327942,0.0399056039750576
1700006756765144800,5.776144775390625,-0.22940894961357117,0.6230649352073669,-0.00501020485535264
1700006756775089700,5.786089599609375,-0.23902615904808044,0.6553400158882141,-0.03376941382884979
1700006756785035500,5.796035400390625,-0.22078803181648254,0.7041453719139099,-0.07121159881353378
1700006756794980900,5.80598095703125,-0.2344955950975418,0.7615010738372803,-0.07961812615394592
1700006756804925700,5.81592578125,-0.22567546367645264,0.7825635075569153,-0.06848239153623581
1700006756814870800,5.825870849609375,-0.20598512887954712,0.7853608727455139,-0.058766111731529236
1700006756824815900,5.83581591796875,-0.19976212084293365,0.8162407875061035,-0.03131131827831268
1700006756834760700,5.8457607421875,-0.20999078452587128,0.8156369924545288,-0.0004673847579397261
1700006756844706800,5.855706787109375,-0.21232157945632935,0.7960766553878784,0.009473130106925964
1700006756854651600,5.865651611328125,-0.20568205416202545,0.7576360106468201,0.017078585922718048
1700006756864596500,5.875596435546875,-0.19316838681697845,0.7503331303596497,0.006435528863221407
1700006756874541800,5.885541748046875,-0.17441974580287933,0.7613705992698669,-0.009020925499498844
1700006756884486700,5.895486572265625,-0.15319781005382538,0.7494707703590393,-0.019659722223877907
1700006756894432800,5.905432861328125,-0.14547677338123322,0.7112131714820862,-0.019520437344908714
1700006756904377600,5.915377685546875,-0.14387035369873047,0.626946747303009,-0.004860801622271538
1700006756914322700,5.92532275390625,-0.1340360939502716,0.5262861847877502,-0.005215268116444349
1700006756924267800,5.935267822265625,-0.10586464405059814,0.4192097783088684,-0.02412104792892933
1700006756934212600,5.945212646484375,-0.07399486750364304,0.3304050862789154,-0.05999063327908516
1700006756944158000,5.955157958984375,-0.05663824453949928,0.26059937477111816,-0.10161876678466797
1700006756954103800,5.965103759765625,-0.043583162128925323,0.21599169075489044,-0.13807743787765503
1700006756964048600,5.975048583984375,-0.04577281326055527,0.18397462368011475,-0.16366349160671234
1700006756973992700,5.98499267578125,-0.039374835789203644,0.1556050330400467,-0.16110925376415253
1700006756983937800,5.994937744140625,-0.01571344956755638,0.12651532888412476,-0.14492470026016235
1700006756993882600,6.004882568359375,0.008220112882554531,0.06041727215051651,-0.11461898684501648
1700006757003827500,6.014827392578125,0.022597454488277435,-0.013994645327329636,-0.08562355488538742
1700006757013773600,6.024773681640625,0.028123512864112854,-0.10933235287666321,-0.03425624221563339
1700006757023718700,6.03471875,0.017185378819704056,-0.16232100129127502,0.03544134646654129
1700006757033663700,6.044663818359375,-0.003772634081542492,-0.16758659482002258,0.09954523295164108
1700006757043608600,6.054608642578125,-0.028664933517575264,-0.14043700695037842,0.18430405855178833
1700006757053553700,6.0645537109375,-0.0547519288957119,-0.1160469800233841,0.2728525698184967
1700006757063498800,6.074498779296875,-0.06682377308607101,-0.12189421057701111,0.346838116645813
1700006757073444600,6.084444580078125,-0.10121823102235794,-0.12103774398565292,0.389757364988327
1700006757083389700,6.0943896484375,-0.1532827615737915,-0.0954359769821167,0.4106732904911041
1700006757093334800,6.104334716796875,-0.20164071023464203,-0.05998477339744568,0.4205666482448578
1700006757103279600,6.114279541015625,-0.2168007493019104,-0.00618039770051837,0.4222865402698517
1700006757113224700,6.124224609375,-0.22882039844989777,0.06771086901426315,0.4061448574066162
1700006757123170600,6.134170654296875,-0.24670085310935974,0.10697837918996811,0.3860779404640198
1700006757133115600,6.14411572265625,-0.2637733221054077,0.11280564218759537,0.36667734384536743
1700006757143060700,6.154060791015625,-0.2608771324157715,0.1232612133026123,0.35610485076904297
1700006757153005600,6.164005615234375,-0.2642715871334076,0.13971395790576935,0.3367364704608917
1700006757162950700,6.17395068359375,-0.2875031530857086,0.14935725927352905,0.3095274865627289
1700006757172895700,6.183895751953125,-0.30916982889175415,0.1643921434879303,0.28515371680259705
1700006757182841600,6.193841552734375,-0.3217354118824005,0.21462202072143555,0.25907817482948303
1700006757192786700,6.20378662109375,-0.3319135010242462,0.2709825038909912,0.22057631611824036
1700006757202731500,6.2137314453125,-0.33198514580726624,0.3427099585533142,0.15643461048603058
1700006757212676600,6.223676513671875,-0.3225599527359009,0.4104735553264618,0.08352845162153244
1700006757222621700,6.23362158203125,-0.31876546144485474,0.481029748916626,0.002237854292616248
1700006757232566500,6.24356640625,-0.32737547159194946,0.5283386707305908,-0.08117741346359253
1700006757242512600,6.2535126953125,-0.3200688064098358,0.5392853021621704,-0.16387975215911865
1700006757252457700,6.263457763671875,-0.3085266649723053,0.5119772553443909,-0.20912019908428192
1700006757262402600,6.273402587890625,-0.30257636308670044,0.4887225329875946,-0.2435878962278366
1700006757272347600,6.28334765625,-0.2896893322467804,0.46102914214134216,-0.2681121528148651
1700006757282292500,6.29329248046875,-0.2625668942928314,0.4183322787284851,-0.2793709337711334
1700006757292237800,6.30323779296875,-0.22654259204864502,0.4145258069038391,-0.26281192898750305
1700006757302183700,6.31318359375,-0.1769617199897766,0.4402277171611786,-0.2501446008682251
1700006757312128500,6.32312841796875,-0.11933864653110504,0.44683048129081726,-0.22075048089027405
1700006757322073600,6.333073486328125,-0.07414879649877548,0.43005603551864624,-0.19215533137321472
1700006757332018700,6.343018798828125,-0.04091174528002739,0.3815023601055145,-0.1695176661014557
1700006757341963500,6.352963623046875,-0.02580469846725464,0.3534936308860779,-0.1528065949678421
1700006757351908600,6.36290869140625,-0.015142467804253101,0.3392523527145386,-0.1723262220621109
1700006757361854500,6.3728544921875,-0.0026517093647271395,0.33695298433303833,-0.2014809250831604
1700006757371799800,6.3827998046875,-0.000731836655177176,0.328682005405426,-0.2304622381925583
1700006757381744600,6.39274462890625,0.00478410255163908,0.32443639636039734,-0.25867947936058044
1700006757391689500,6.402689453125,0.0065047708339989185,0.3135736286640167,-0.2791258990764618
1700006757401634800,6.412634765625,0.01565512642264366,0.3134567141532898,-0.304402232170105
1700006757411579600,6.42257958984375,0.02267921343445778,0.3133707046508789,-0.31751352548599243
1700006757421525800,6.43252587890625,0.037763092666864395,0.30836021900177,-0.3131650984287262
1700006757431470600,6.442470703125,0.052206747233867645,0.3122718930244446,-0.2969014346599579
1700006757441415400,6.45241552734375,0.061884939670562744,0.3224550187587738,-0.266218364238739
1700006757451360800,6.46236083984375,0.06402558833360672,0.34036797285079956,-0.2384495884180069
1700006757461305600,6.4723056640625,0.06389456242322922,0.35793817043304443,-0.22306238114833832
1700006757471251700,6.482251708984375,0.06241384148597717,0.3757432699203491,-0.22493989765644073
1700006757481196500,6.492196533203125,0.059533633291721344,0.37561675906181335,-0.2317429482936859
1700006757491141600,6.5021416015625,0.06402398645877838,0.37446895241737366,-0.2327837198972702
1700006757501086700,6.512086669921875,0.07243771106004715,0.3693048059940338,-0.23649004101753235
1700006757511031600,6.522031494140625,0.08458492159843445,0.3552369177341461,-0.2399156540632248
1700006757520976600,6.5319765625,0.097795270383358,0.33412179350852966,-0.24140650033950806
1700006757530922800,6.5419228515625,0.11397317051887512,0.3090140223503113,-0.24896614253520966
1700006757540867600,6.55186767578125,0.11981348693370819,0.28642669320106506,-0.2665635049343109
1700006757550812700,6.561812744140625,0.12041535973548889,0.28061753511428833,-0.2855244278907776
1700006757560757800,6.5717578125,0.10494958609342575,0.2743220925331116,-0.3080664873123169
1700006757570702600,6.58170263671875,0.08982229977846146,0.26048484444618225,-0.3300205171108246
1700006757580647700,6.591647705078125,0.06861767917871475,0.23727460205554962,-0.3622567653656006
1700006757590593500,6.601593505859375,0.05341422185301781,0.22055473923683167,-0.3923075795173645
1700006757600538600,6.61153857421875,0.03349750488996506,0.2313770353794098,-0.4020073711872101
1700006757610483700,6.621483642578125,0.024893099442124367,0.22384294867515564,-0.4005593955516815
1700006757620428500,6.631428466796875,0.04027338698506355,0.1869773417711258,-0.37031227350234985
1700006757630373600,6.64137353515625,0.07947192341089249,0.13893525302410126,-0.31027159094810486
1700006757640318700,6.651318603515625,0.12493261694908142,0.10597915947437286,-0.25201866030693054
1700006757650264800,6.661264892578125,0.15773050487041473,0.023444605991244316,-0.15278901159763336
1700006757660209700,6.671209716796875,0.19121550023555756,-0.04553819075226784,-0.07974755764007568
1700006757670154500,6.681154541015625,0.2226346731185913,-0.14976686239242554,-0.04351365566253662
1700006757680099800,6.691099853515625,0.24156628549098969,-0.23721228539943695,-0.018519354984164238
1700006757690044700,6.701044677734375,0.2648811936378479,-0.29910096526145935,0.015500662848353386
1700006757699989500,6.710989501953125,0.2947501540184021,-0.37987062335014343,0.05498335883021355
1700006757709935600,6.720935546875,0.3508214056491852,-0.4484584927558899,0.1064034029841423
1700006757719880700,6.730880615234375,0.3863096237182617,-0.5135557055473328,0.1445968598127365
1700006757729825800,6.74082568359375,0.3887743651866913,-0.5589245557785034,0.17948773503303528
1700006757739770600,6.7507705078125,0.36712446808815,-0.600059986114502,0.192902073264122
1700006757749715500,6.760715576171875,0.3521122336387634,-0.6246143579483032,0.16498255729675293
1700006757759660800,6.770660888671875,0.3402070999145508,-0.6506690979003906,0.12893961369991302
1700006757769606700,6.780606689453125,0.33630186319351196,-0.6878321766853333,0.11471832543611526
1700006757779551700,6.7905517578125,0.3288932144641876,-0.7272722721099854,0.13272076845169067
1700006757789496600,6.80049658203125,0.311127245426178,-0.7736805081367493,0.143326535820961
1700006757799441700,6.810441650390625,0.29760557413101196,-0.8332636952400208,0.16986094415187836
1700006757809386800,6.82038671875,0.29179030656814575,-0.9049743413925171,0.20766450464725494
1700006757819332600,6.83033251953125,0.2897127866744995,-0.9859344363212585,0.24794375896453857
1700006757829277700,6.840277587890625,0.2879936993122101,-1.0636849403381348,0.29088670015335083
1700006757839222800,6.850222900390625,0.28655558824539185,-1.1262742280960083,0.31923604011535645
1700006757849167600,6.860167724609375,0.27563050389289856,-1.155654788017273,0.345158189535141
1700006757859112700,6.87011279296875,0.2594510018825531,-1.1805009841918945,0.3655303120613098
1700006757869057500,6.8800576171875,0.22748002409934998,-1.1879820823669434,0.3689711093902588
1700006757879003600,6.890003662109375,0.20209930837154388,-1.184416651725769,0.359353631734848
1700006757888948700,6.89994873046875,0.1880982667207718,-1.1839300394058228,0.3339068591594696
1700006757898893600,6.9098935546875,0.17993700504302979,-1.179866075515747,0.3052824139595032
1700006757908838700,6.919838623046875,0.1708337962627411,-1.177469253540039,0.2675211727619171
1700006757918783700,6.92978369140625,0.1647239625453949,-1.1739823818206787,0.19152681529521942
1700006757928728600,6.939728515625,0.15319886803627014,-1.1855602264404297,0.09332675486803055
1700006757938674700,6.9496748046875,0.14786802232265472,-1.205180287361145,-0.0008684568456374109
1700006757948619500,6.95961962890625,0.14628849923610687,-1.248152256011963,-0.0912923589348793
1700006757958564900,6.96956494140625,0.1436019092798233,-1.31142258644104,-0.16473622620105743
1700006757968509700,6.979509765625,0.15135516226291656,-1.3916609287261963,-0.22197474539279938
1700006757978455800,6.989455810546875,0.16264218091964722,-1.4786477088928223,-0.24605904519557953
1700006757988400600,6.999400634765625,0.166117861866951,-1.56052827835083,-0.2644076943397522
1700006757998346800,7.0093466796875,0.16316361725330353,-1.625614047050476,-0.2754739224910736
1700006758008291800,7.019291748046875,0.15329447388648987,-1.6672799587249756,-0.2937344014644623
1700006758018236700,7.029236572265625,0.14042341709136963,-1.6968735456466675,-0.31045055389404297
1700006758028181800,7.039181640625,0.1352078914642334,-1.7220792770385742,-0.32522788643836975
1700006758038126600,7.049126708984375,0.12738938629627228,-1.755092978477478,-0.3276748061180115
1700006758048071700,7.05907177734375,0.11996129155158997,-1.7950222492218018,-0.3097764849662781
1700006758058017800,7.069017822265625,0.11618945747613907,-1.8292531967163086,-0.2841121554374695
1700006758067962600,7.078962646484375,0.10907614976167679,-1.854196310043335,-0.2681789994239807
1700006758077907700,7.08890771484375,0.09526446461677551,-1.8502862453460693,-0.25903236865997314
1700006758087852800,7.098852783203125,0.08237236738204956,-1.8287197351455688,-0.27084746956825256
1700006758097797600,7.108797607421875,0.0580848753452301,-1.8046354055404663,-0.2733977138996124
1700006758107742700,7.11874267578125,0.046061769127845764,-1.7692779302597046,-0.2797115445137024
1700006758117688600,7.1286884765625,0.03917429968714714,-1.7296490669250488,-0.2931314706802368
1700006758127634000,7.138634033203125,0.023084547370672226,-1.6854195594787598,-0.324047327041626
1700006758137578800,7.148578857421875,0.01173415407538414,-1.647169589996338,-0.366862416267395
1700006758147523600,7.158523681640625,0.006055495701730251,-1.6246150732040405,-0.41555431485176086
1700006758157468700,7.16846875,-0.010587929747998714,-1.6090757846832275,-0.45289531350135803
1700006758167414800,7.178414794921875,-0.027126425877213478,-1.5922414064407349,-0.4754014015197754
1700006758177360000,7.18835986328125,-0.04707536846399307,-1.5354952812194824,-0.49464595317840576
1700006758187304700,7.1983046875,-0.07956646382808685,-1.4873405694961548,-0.4903603792190552
1700006758197249500,7.20824951171875,-0.09151047468185425,-1.422467589378357,-0.49270370602607727
1700006758207195000,7.21819482421875,-0.07746869325637817,-1.3823227882385254,-0.48507216572761536
1700006758217139700,7.2281396484375,-0.07750038057565689,-1.3200434446334839,-0.48965704441070557
1700006758227085800,7.2380859375,-0.08317531645298004,-1.2491495609283447,-0.4828047454357147
1700006758237030700,7.24803076171875,-0.09624238312244415,-1.1667077541351318,-0.46721193194389343
1700006758246975700,7.257975830078125,-0.09663253277540207,-1.082749366760254,-0.4379754662513733
1700006758256920800,7.2679208984375,-0.08916023373603821,-1.0135772228240967,-0.3794250786304474
1700006758266865700,7.27786572265625,-0.0810658261179924,-0.9513533115386963,-0.3048595190048218
1700006758276810800,7.287810791015625,-0.0722544863820076,-0.9051885008811951,-0.22689679265022278
1700006758286756900,7.2977568359375,-0.07997765392065048,-0.8710704445838928,-0.15609000623226166
1700006758296701700,7.30770166015625,-0.08879484981298447,-0.8397639393806458,-0.10233782231807709
1700006758306646800,7.317646728515625,-0.10634614527225494,-0.8057140707969666,-0.04072266072034836
1700006758316591600,7.327591552734375,-0.1129411980509758,-0.7630816698074341,0.030847927555441856
1700006758326536700,7.33753662109375,-0.12675368785858154,-0.7288389801979065,0.1104855015873909
1700006758336481800,7.347481689453125,-0.14721448719501495,-0.7052060961723328,0.1831786036491394
1700006758346427600,7.357427734375,-0.16896505653858185,-0.6745722889900208,0.24811579287052155
1700006758356372700,7.367372802734375,-0.17620964348316193,-0.6528507471084595,0.3063119947910309
1700006758366317800,7.37731787109375,-0.18255196511745453,-0.6451025605201721,0.3596460521221161
1700006758376262700,7.3872626953125,-0.20032671093940735,-0.6319039463996887,0.4049474895000458
1700006758386207700,7.397207763671875,-0.21745482087135315,-0.5991672873497009,0.41826489567756653
1700006758396152800,7.40715283203125,-0.22765979170799255,-0.5619773268699646,0.42421412467956543
1700006758406099000,7.417098876953125,-0.22910694777965546,-0.5102294087409973,0.4146198332309723
1700006758416043800,7.427043701171875,-0.2195643186569214,-0.42639392614364624,0.39336487650871277
1700006758425988600,7.436988525390625,-0.19066022336483002,-0.3512411117553711,0.3661646842956543
1700006758435934000,7.446933837890625,-0.15157967805862427,-0.31672629714012146,0.3598572313785553
1700006758445878800,7.456878662109375,-0.12574994564056396,-0.29654672741889954,0.3829425871372223
1700006758455823600,7.46682373046875,-0.10904072970151901,-0.28708770871162415,0.40878722071647644
1700006758465769700,7.476769775390625,-0.11425600200891495,-0.2701289653778076,0.42129477858543396
1700006758475714600,7.486714599609375,-0.15590038895606995,-0.24521347880363464,0.41815516352653503
1700006758485660000,7.496659912109375,-0.2017030268907547,-0.20145002007484436,0.40597814321517944
1700006758495604700,7.506604736328125,-0.25646162033081055,-0.14967311918735504,0.37198981642723083
1700006758505549600,7.516549560546875,-0.30914613604545593,-0.0977444052696228,0.3390062749385834
1700006758515495000,7.526494873046875,-0.3460407555103302,-0.03856576979160309,0.3013281524181366
1700006758525440800,7.536440673828125,-0.3542526066303253,0.026041720062494278,0.27398866415023804
1700006758535385600,7.546385498046875,-0.34056875109672546,0.07833687961101532,0.2699286937713623
1700006758545330700,7.55633056640625,-0.3147355616092682,0.1247645691037178,0.27584782242774963
1700006758555275800,7.56627587890625,-0.30306825041770935,0.1789572387933731,0.2506447434425354
1700006758565220900,7.576220947265625,-0.307052344083786,0.2180849313735962,0.18765005469322205
1700006758575166700,7.586166748046875,-0.31472092866897583,0.23372727632522583,0.1407720297574997
1700006758585111600,7.596111572265625,-0.31066787242889404,0.2215329259634018,0.10866069793701172
1700006758595057000,7.606056884765625,-0.2895979881286621,0.20384900271892548,0.10126403719186783
1700006758605001700,7.616001708984375,-0.2606164216995239,0.1887824386358261,0.09410466253757477
1700006758614946800,7.62594677734375,-0.23127956688404083,0.18400126695632935,0.06909731030464172
1700006758624891600,7.6358916015625,-0.19475723803043365,0.1825474351644516,0.04183586314320564
1700006758634837500,7.64583740234375,-0.1547110229730606,0.18118363618850708,0.02129410393536091
1700006758644782800,7.655782958984375,-0.11183945089578629,0.16065172851085663,0.011818842962384224
1700006758654727700,7.665727783203125,-0.06573214381933212,0.11818309873342514,0.021332984790205956
1700006758664672500,7.675672607421875,-0.018076471984386444,0.07878296077251434,0.03645201772451401
1700006758674617900,7.685617919921875,0.03157257288694382,0.045345112681388855,0.05095293000340462
1700006758684562700,7.695562744140625,0.06965018063783646,0.033060479909181595,0.05672213435173035
1700006758694508800,7.7055087890625,0.09876785427331924,0.028248948976397514,0.060753628611564636
1700006758704453600,7.71545361328125,0.10897815227508545,0.051893822848796844,0.03491963446140289
1700006758714398700,7.725398681640625,0.1193452998995781,0.06608740985393524,0.023969780653715134
1700006758724343800,7.73534375,0.12005024403333664,0.07058948278427124,0.014146178960800171
1700006758734288600,7.74528857421875,0.10869505256414413,0.06882593780755997,-0.021708490327000618
1700006758744233700,7.755233642578125,0.09907039254903793,0.08634953200817108,-0.057198308408260345
1700006758754179800,7.765179931640625,0.08827447146177292,0.14804299175739288,-0.10221877694129944
1700006758764124700,7.775124755859375,0.07217299938201904,0.2150646448135376,-0.13530242443084717
1700006758774069800,7.78506982421875,0.05036943033337593,0.2928835451602936,-0.15945224463939667
1700006758784014600,7.7950146484375,0.04382551088929176,0.3743956983089447,-0.1871885359287262
1700006758793959700,7.804959716796875,0.03851410374045372,0.4280804991722107,-0.2575244903564453
1700006758803904800,7.81490478515625,0.02869449555873871,0.44162482023239136,-0.3257637321949005
1700006758813850600,7.8248505859375,0.016537165269255638,0.4439132511615753,-0.36142876744270325
1700006758823795700,7.834795654296875,0.01047421246767044,0.435564786195755,-0.35964712500572205
1700006758833740800,7.84474072265625,0.006596117280423641,0.4284626543521881,-0.3600181043148041
1700006758843685600,7.854685546875,0.01920059323310852,0.41744464635849,-0.3545679450035095
1700006758853630700,7.864630615234375,0.018371550366282463,0.409676194190979,-0.35748091340065
1700006758863575800,7.874575927734375,0.01902375929057598,0.42087480425834656,-0.35622256994247437
1700006758873522000,7.88452197265625,0.012233230285346508,0.41391995549201965,-0.35307738184928894
1700006758883466800,7.894466796875,0.008681905455887318,0.40294238924980164,-0.36615481972694397
1700006758893411600,7.90441162109375,0.02101100981235504,0.3705415725708008,-0.3698640763759613
1700006758903356700,7.914356689453125,0.05167491361498833,0.3138681650161743,-0.3349052965641022
1700006758913301800,7.9243017578125,0.09071818739175797,0.24048158526420593,-0.2647821307182312
1700006758923246600,7.93424658203125,0.10834112018346786,0.16708166897296906,-0.20183192193508148
1700006758933191700,7.944191650390625,0.1155492290854454,0.0906987413764,-0.14734391868114471
1700006758943136800,7.95413671875,0.11909469962120056,0.00875034835189581,-0.0948849692940712
1700006758953083000,7.964082763671875,0.13708248734474182,-0.0568491667509079,-0.03592604398727417
1700006758963027700,7.97402783203125,0.1633194237947464,-0.1065719798207283,-0.0015840481501072645
1700006758972972500,7.98397265625,0.192268505692482,-0.17356912791728973,0.031151793897151947
1700006758982917600,7.993917724609375,0.22035500407218933,-0.2906680405139923,0.0865764394402504
1700006758992862700,8.00386279296875,0.2471405416727066,-0.43255940079689026,0.1562492549419403
1700006759002807600,8.0138076171875,0.2772688865661621,-0.5878598093986511,0.24683721363544464
1700006759012753400,8.02375341796875,0.33415454626083374,-0.72310471534729,0.3517647087574005
1700006759022698800,8.03369873046875,0.40695205330848694,-0.8193784952163696,0.44461607933044434
1700006759032643600,8.0436435546875,0.47915753722190857,-0.9118676781654358,0.49203819036483765
1700006759042588700,8.053588623046876,0.5359707474708557,-0.9997429251670837,0.5206192135810852
1700006759052533500,8.063533447265625,0.5783448219299316,-1.038879632949829,0.5452404022216797
1700006759062478600,8.073478515625,0.6106758713722229,-1.0388466119766235,0.528396725654602
1700006759072424700,8.0834248046875,0.6242561340332031,-1.0388530492782593,0.4755108654499054
1700006759082369500,8.09336962890625,0.5902635455131531,-1.1077232360839844,0.4238053262233734
1700006759092314400,8.103314453125,0.5561098456382751,-1.214989185333252,0.404403418302536
1700006759102259700,8.113259765625,0.5507773756980896,-1.3184870481491089,0.3934551477432251
1700006759112204500,8.12320458984375,0.5684908628463745,-1.3982831239700317,0.401983380317688
1700006759122149600,8.133149658203125,0.5558677911758423,-1.455268383026123,0.3971524238586426
1700006759132095500,8.143095458984375,0.47904595732688904,-1.511527419090271,0.3684842884540558
1700006759142040600,8.15304052734375,0.3824203312397003,-1.5613181591033936,0.34512463212013245
1700006759151985700,8.162985595703125,0.3434566855430603,-1.594191074371338,0.3534395694732666
1700006759161930500,8.172930419921874,0.34498295187950134,-1.6129016876220703,0.3472173511981964
1700006759171875800,8.182875732421875,0.3561069667339325,-1.6283535957336426,0.33946913480758667
1700006759181820700,8.192820556640624,0.3509729504585266,-1.6350394487380981,0.3123033046722412
1700006759191766500,8.2027666015625,0.3070574104785919,-1.621591567993164,0.26631370186805725
1700006759201711600,8.212711669921875,0.23577576875686646,-1.6261544227600098,0.23052749037742615
1700006759211656400,8.222656494140624,0.18121559917926788,-1.6255327463150024,0.21608702838420868
1700006759221601500,8.2326015625,0.1531996726989746,-1.6314517259597778,0.20733320713043213
1700006759231546600,8.242546630859374,0.13179637491703033,-1.6331793069839478,0.1823732703924179
1700006759241491500,8.252491455078125,0.12038660049438477,-1.6217674016952515,0.16419346630573273
1700006759251437600,8.2624375,0.10993768274784088,-1.6208230257034302,0.16897809505462646
1700006759261382700,8.272382568359374,0.10106509923934937,-1.6397298574447632,0.14218004047870636
1700006759271327500,8.282327392578125,0.0896768867969513,-1.6326199769973755,0.07699145376682281
1700006759281272600,8.2922724609375,0.08498013764619827,-1.5862631797790527,-0.0011808456620201468
1700006759291217700,8.3022177734375,0.0741376131772995,-1.5516036748886108,-0.0733431875705719
1700006759301162500,8.31216259765625,0.07151945680379868,-1.5265558958053589,-0.12614861130714417
1700006759311108600,8.322108642578126,0.07125686854124069,-1.5024579763412476,-0.13874216377735138
1700006759321053400,8.332053466796875,0.0699833482503891,-1.4751629829406738,-0.1211988627910614
1700006759330998800,8.341998779296874,0.06256937235593796,-1.4688364267349243,-0.10608888417482376
1700006759340944600,8.351944580078126,0.04783330112695694,-1.4486528635025024,-0.10432747006416321
1700006759350889700,8.3618896484375,0.038161501288414,-1.4443808794021606,-0.13261689245700836
1700006759360834600,8.37183447265625,0.027822576463222504,-1.4544012546539307,-0.13060754537582397
1700006759370779400,8.381779296875,0.02345845475792885,-1.4363930225372314,-0.0934993252158165
1700006759380724700,8.391724853515624,0.020064255222678185,-1.4178102016448975,-0.06645359098911285
1700006759390669600,8.401669677734375,0.029170401394367218,-1.4012118577957153,-0.042041193693876266
1700006759400615700,8.41161572265625,0.03123754821717739,-1.3786369562149048,-0.024576449766755104
1700006759410560500,8.421560546875,0.02130342461168766,-1.3581207990646362,-0.016079368069767952
1700006759420505600,8.431505615234375,0.00657614367082715,-1.3372900485992432,0.008844624273478985
1700006759430450700,8.44145068359375,-0.01257970742881298,-1.302258014678955,0.015149657614529133
1700006759440395500,8.4513955078125,-0.03161225467920303,-1.2628706693649292,0.018208298832178116
1700006759450340600,8.461340576171875,-0.05155187472701073,-1.2101545333862305,0.02857598476111889
1700006759460286700,8.47128662109375,-0.05060751736164093,-1.1371207237243652,0.048770468682050705
1700006759470231600,8.4812314453125,-0.035284485667943954,-1.0730690956115723,0.07407156378030777
1700006759480176600,8.4911767578125,-0.028244687244296074,-0.981032133102417,0.08684168756008148
1700006759490121700,8.501121826171875,-0.022287728264927864,-0.8867769837379456,0.06831008195877075
1700006759500066600,8.511066650390624,-0.030491063371300697,-0.8028666377067566,0.02996455691754818
1700006759510011600,8.52101171875,-0.05114414542913437,-0.7314198613166809,-0.02177640236914158
1700006759519957500,8.53095751953125,-0.06010248512029648,-0.6548321843147278,-0.0693548396229744
1700006759529902600,8.540902587890624,-0.06314008682966232,-0.580489456653595,-0.10626251995563507
1700006759539847700,8.55084765625,-0.054180413484573364,-0.4967264235019684,-0.13612721860408783
1700006759549792500,8.56079248046875,-0.04012931138277054,-0.42922860383987427,-0.1605585217475891
1700006759559737600,8.570737548828125,-0.03981505706906319,-0.39025482535362244,-0.16121259331703186
1700006759569682700,8.5806826171875,-0.046613309532403946,-0.34439173340797424,-0.17424502968788147
1700006759579628800,8.59062890625,-0.05750323832035065,-0.30574366450309753,-0.19810909032821655
1700006759589573600,8.60057373046875,-0.06414569914340973,-0.2589237093925476,-0.22032305598258972
1700006759599518500,8.6105185546875,-0.08025355637073517,-0.2210833877325058,-0.23549294471740723
1700006759609463800,8.6204638671875,-0.09390199184417725,-0.1938142031431198,-0.2478470802307129
1700006759619408600,8.63040869140625,-0.10580179840326309,-0.15196636319160461,-0.2704959511756897
1700006759629353500,8.640353515625,-0.10282597690820694,-0.12176638096570969,-0.28853192925453186
1700006759639299600,8.650299560546875,-0.0877130776643753,-0.09970901906490326,-0.2770792841911316
1700006759649244700,8.66024462890625,-0.06921848654747009,-0.08381713926792145,-0.2445700615644455
1700006759659189800,8.670189697265625,-0.04536455124616623,-0.06181223317980766,-0.21246086061000824
1700006759669134600,8.680134521484375,-0.02298680879175663,-0.053832072764635086,-0.19088366627693176
1700006759679079400,8.690079345703126,-0.004689826630055904,-0.05681534484028816,-0.16660308837890625
1700006759689024800,8.700024658203125,-0.0007986819837242365,-0.06011340394616127,-0.13620337843894958
1700006759698970600,8.709970703125,0.009845972992479801,-0.07026270776987076,-0.09940674901008606
1700006759708915700,8.719915771484375,0.03840437904000282,-0.07311762124300003,-0.05399532616138458
1700006759718860500,8.729860595703125,0.06752870976924896,-0.07315437495708466,0.0026959178503602743
1700006759728805600,8.7398056640625,0.08610958606004715,-0.08781107515096664,0.06640832126140594
1700006759738750700,8.749750732421875,0.08864171802997589,-0.10092049092054367,0.1015564501285553
1700006759748695600,8.759695556640626,0.09638272970914841,-0.10494931787252426,0.13061366975307465
1700006759758641400,8.769641357421875,0.09886213392019272,-0.07524362206459045,0.13696929812431335
1700006759768586800,8.779586669921875,0.10397140681743622,-0.02659246139228344,0.12315495312213898
1700006759778531600,8.789531494140626,0.11396252363920212,-0.014207964763045311,0.15257489681243896
1700006759788476700,8.7994765625,0.1306307166814804,-0.05088821426033974,0.20056958496570587
1700006759798421500,8.80942138671875,0.14912131428718567,-0.1017383486032486,0.22332549095153809
1700006759808366600,8.81936669921875,0.15352937579154968,-0.13978692889213562,0.2340545803308487
1700006759818312700,8.829312744140625,0.1456453502178192,-0.1646406054496765,0.22784115374088287
1700006759828257500,8.839257568359375,0.10242144763469696,-0.22231322526931763,0.18391524255275726
1700006759838202600,8.84920263671875,0.0608428455889225,-0.25012221932411194,0.1111757904291153
1700006759848147700,8.859147705078126,0.04030241444706917,-0.27411144971847534,0.049799513071775436
1700006759858092500,8.869092529296875,0.00902705080807209,-0.300252228975296,0.005360410548746586
1700006759868037600,8.87903759765625,-0.01170592475682497,-0.321435809135437,-0.0474383570253849
1700006759877983500,8.8889833984375,-0.046542469412088394,-0.3673010468482971,-0.09461385756731033
1700006759887928600,8.898928466796875,-0.09434034675359726,-0.41129806637763977,-0.14437821507453918
1700006759897873700,8.908873779296876,-0.14917457103729248,-0.43851184844970703,-0.19461528956890106
1700006759907818500,8.918818603515625,-0.20957612991333008,-0.4729912579059601,-0.22057019174098969
1700006759917763600,8.928763671875,-0.24401533603668213,-0.5215563774108887,-0.18981413543224335
1700006759927708700,8.938708740234375,-0.2522817850112915,-0.5234631896018982,-0.13276603817939758
1700006759937654500,8.948654541015625,-0.23790471255779266,-0.4778403341770172,-0.07608970999717712
1700006759947599600,8.958599609375,-0.20819447934627533,-0.4160081148147583,-0.010522682219743729
1700006759957544400,8.96854443359375,-0.18659783899784088,-0.33313003182411194,0.048706553876399994
1700006759967489500,8.978489501953124,-0.1714966595172882,-0.24075402319431305,0.07584762573242188
1700006759977434400,8.988434326171875,-0.15976223349571228,-0.12106650322675705,0.08264454454183578
1700006759987379500,8.99837939453125,-0.1482672244310379,-0.014208762906491756,0.06990957260131836
1700006759997325300,9.0083251953125,-0.13899490237236023,0.10188322514295578,0.034330010414123535
1700006760007270700,9.018270751953125,-0.12827834486961365,0.24105122685432434,-0.013856160454452038
1700006760017215500,9.028215576171876,-0.10547502338886261,0.3891395032405853,-0.07261055707931519
1700006760027160300,9.038160400390625,-0.06638834625482559,0.5413678884506226,-0.1449659764766693
1700006760037105700,9.048105712890624,-0.028113393113017082,0.6224491596221924,-0.20527885854244232
1700006760047050500,9.058050537109375,0.011351457796990871,0.6001497507095337,-0.23028406500816345
1700006760056996600,9.06799658203125,0.04837498813867569,0.5567452907562256,-0.22582700848579407
1700006760066941400,9.07794140625,0.0736640989780426,0.4984484016895294,-0.22588425874710083
1700006760076886500,9.087886474609375,0.08591890335083008,0.43856245279312134,-0.20741496980190277
1700006760086831600,9.09783154296875,0.09356803447008133,0.4153045117855072,-0.18279404938220978
1700006760096776400,9.1077763671875,0.09187746047973633,0.3894992768764496,-0.15149977803230286
1700006760106721300,9.11772119140625,0.09319598972797394,0.3262968957424164,-0.10939440131187439
1700006760116667400,9.12766748046875,0.08971364051103592,0.2557513415813446,-0.0518842376768589
1700006760126612500,9.137612548828125,0.09440932422876358,0.19093267619609833,0.0073263561353087425
1700006760136557600,9.1475576171875,0.09292834252119064,0.1337205171585083,0.058219898492097855
1700006760146502400,9.15750244140625,0.08763158321380615,0.08139179646968842,0.09093336760997772
1700006760156447500,9.167447509765625,0.07362042367458344,0.040098417550325394,0.09574143588542938
1700006760166392600,9.177392578125,0.06184525787830353,0.009150355122983456,0.08878925442695618
1700006760176338400,9.18733837890625,0.03506770730018616,-0.021227523684501648,0.07694777846336365
1700006760186283500,9.197283447265624,0.015134211629629135,-0.04410301148891449,0.06621310859918594
1700006760196228600,9.207228515625,-0.0079133166000247,-0.059283297508955,0.05398999899625778
1700006760206173400,9.21717333984375,-0.058826033025979996,-0.0802740678191185,0.03634895384311676
1700006760216118500,9.227118408203125,-0.08114705234766006,-0.0990525484085083,0.04681570827960968
1700006760226064400,9.237064453125,-0.08615805208683014,-0.08867793530225754,0.040588706731796265
1700006760236009500,9.247009521484374,-0.0891897976398468,-0.07773607224225998,0.03761528432369232
1700006760245954600,9.25695458984375,-0.08644487708806992,-0.07483722269535065,0.049250371754169464
1700006760255899400,9.2668994140625,-0.09089209139347076,-0.064229317009449,0.03466770052909851
1700006760265844500,9.276844482421875,-0.0773744136095047,-0.03644402697682381,0.008903480134904385
1700006760275789600,9.28678955078125,-0.059125903993844986,0.025319738313555717,-0.037878140807151794
1700006760285734400,9.296734375,-0.04953186586499214,0.0884542316198349,-0.09440133720636368
1700006760295680500,9.306680419921875,-0.04656403884291649,0.12924161553382874,-0.13729767501354218
1700006760305625300,9.316625244140624,-0.03273717314004898,0.20259465277194977,-0.1908213496208191
1700006760315570700,9.32657080078125,-0.020739633589982986,0.23545433580875397,-0.19943134486675262
1700006760325515500,9.336515625,-0.016879914328455925,0.26798537373542786,-0.20903044939041138
1700006760335460400,9.34646044921875,-0.009156480431556702,0.27312901616096497,-0.22466214001178741
1700006760345405700,9.35640576171875,0.0036048549227416515,0.3277568221092224,-0.2593221068382263
1700006760355351600,9.3663515625,0.015928899869322777,0.3951752781867981,-0.28637078404426575
1700006760365296600,9.376296630859375,0.013703295029699802,0.44361287355422974,-0.30847102403640747
1700006760375241500,9.386241455078125,0.00902491994202137,0.5020490288734436,-0.3204781413078308
1700006760385186600,9.3961865234375,0.0009496832499280572,0.530576229095459,-0.3092007339000702
1700006760395131600,9.406131591796875,-0.0106491819024086,0.5251418352127075,-0.2840551435947418
1700006760405076500,9.416076416015626,-0.031014375388622284,0.4967668950557709,-0.26692995429039
1700006760415022600,9.426022705078125,-0.04950043931603432,0.47615349292755127,-0.2488313913345337
1700006760424967400,9.435967529296875,-0.06360427290201187,0.43581750988960266,-0.22422458231449127
1700006760434912500,9.44591259765625,-0.07553230971097946,0.39367327094078064,-0.19400329887866974
1700006760444857600,9.455857666015625,-0.09239491075277328,0.3446899950504303,-0.17366792261600494
1700006760454802400,9.465802490234376,-0.10514266788959503,0.2596760392189026,-0.14300988614559174
1700006760464747500,9.47574755859375,-0.12210114300251007,0.18150374293327332,-0.11209671199321747
1700006760474693600,9.485693603515625,-0.13065628707408905,0.1290610432624817,-0.10156737267971039
1700006760484638500,9.495638427734375,-0.13429628312587738,0.07994303852319717,-0.09746397286653519
1700006760494583600,9.50558349609375,-0.13131435215473175,0.0426529198884964,-0.0904017984867096
1700006760504528600,9.515528564453126,-0.1260540783405304,0.023445671424269676,-0.0842091515660286
1700006760514473500,9.525473388671875,-0.12406575679779053,0.018761970102787018,-0.06900356709957123
1700006760524418600,9.53541845703125,-0.12094293534755707,0.01420290395617485,-0.041181523352861404
1700006760534364400,9.545364501953125,-0.12071389704942703,0.009387909434735775,-0.014555506408214569
1700006760544309500,9.5553095703125,-0.12561172246932983,-0.011463310569524765,0.024104004725813866
1700006760554254600,9.565254638671876,-0.12449505925178528,-0.029256155714392662,0.05673997849225998
1700006760564199400,9.575199462890625,-0.11968965083360672,-0.04012797772884369,0.08654208481311798
1700006760574144500,9.58514453125,-0.11235903203487396,-0.0553484782576561,0.10794217884540558
1700006760584089600,9.595089599609375,-0.0972605049610138,-0.042758915573358536,0.11898577213287354
1700006760594035700,9.60503564453125,-0.0769355297088623,-0.018557172268629074,0.1189492866396904
1700006760603980500,9.61498046875,-0.05000936985015869,0.0008820389630272985,0.12698671221733093
1700006760613925400,9.62492529296875,-0.02226003259420395,0.022598519921302795,0.1392471045255661
1700006760623870700,9.63487060546875,0.0016282566357403994,0.04561568796634674,0.13790567219257355
1700006760633815600,9.644815673828125,0.024167122319340706,0.0663747638463974,0.15258820354938507
1700006760643760400,9.654760498046874,0.040817469358444214,0.10318151116371155,0.15441274642944336
1700006760653706500,9.66470654296875,0.04681624099612236,0.15809296071529388,0.1409326195716858
1700006760663651600,9.674651611328125,0.049916960299015045,0.22332283854484558,0.11597613990306854
1700006760673596700,9.6845966796875,0.05109380930662155,0.2699925899505615,0.08389250189065933
1700006760683541500,9.69454150390625,0.06447140127420425,0.3081756830215454,0.07559941709041595
1700006760693486300,9.704486328125,0.07905327528715134,0.3444543182849884,0.07957285642623901
1700006760703431700,9.714431640625,0.0891256183385849,0.399585485458374,0.09337202459573746
1700006760713377500,9.72437744140625,0.09447031468153,0.4737190902233124,0.0970839411020279
1700006760723322600,9.734322509765626,0.09423408657312393,0.5465714931488037,0.08354416489601135
1700006760733267500,9.744267333984375,0.0863143801689148,0.6210219860076904,0.049245309084653854
1700006760743212500,9.754212646484374,0.0708502009510994,0.669536292552948,0.014179468154907227
1700006760753157600,9.76415771484375,0.06845655292272568,0.6695655584335327,0.01044331956654787
1700006760763102500,9.7741025390625,0.07569529116153717,0.6469982266426086,0.030881749466061592
1700006760773048300,9.78404833984375,0.09113577008247375,0.6171724200248718,0.06445728987455368
1700006760782993700,9.79399365234375,0.10724096745252609,0.5959104895591736,0.11910295486450195
1700006760792938500,9.8039384765625,0.11090841144323349,0.613344132900238,0.17871834337711334
1700006760802883600,9.813883544921875,0.09943604469299316,0.6710436344146729,0.23128755390644073
1700006760812828400,9.823828369140625,0.07333599776029587,0.7458962798118591,0.25392282009124756
1700006760822773500,9.8337734375,0.044321127235889435,0.8019416928291321,0.26424336433410645
1700006760832719600,9.8437197265625,0.007690676487982273,0.8514149785041809,0.261810839176178
1700006760842664400,9.85366455078125,-0.021287977695465088,0.8803297281265259,0.2407284528017044
1700006760852609500,9.863609619140625,-0.04898325353860855,0.8710523247718811,0.2229422628879547
1700006760862554600,9.8735546875,-0.07323133945465088,0.8392576575279236,0.2132403701543808
1700006760872499500,9.88349951171875,-0.09917958080768585,0.8265096545219421,0.1934184581041336
1700006760882444500,9.893444580078125,-0.13024508953094482,0.8381249904632568,0.16677327454090118
1700006760892390400,9.903390380859374,-0.16820205748081207,0.8249940276145935,0.1316847950220108
1700006760902335500,9.91333544921875,-0.20221196115016937,0.789246141910553,0.09800432622432709
1700006760912280600,9.923280517578124,-0.24615705013275146,0.714459240436554,0.07153037935495377
1700006760922225400,9.933225341796875,-0.27670562267303467,0.6225000619888306,0.04373469576239586
1700006760932170800,9.943170654296875,-0.3006857931613922,0.5365385413169861,0.011980762705206871
1700006760942115600,9.953115478515626,-0.3268183469772339,0.4422980546951294,-0.007409446872770786
1700006760952061400,9.9630615234375,-0.34133443236351013,0.3596804141998291,-0.020114589482545853
1700006760962006500,9.973006591796874,-0.34872710704803467,0.27072176337242126,-0.022701583802700043
1700006760971951400,9.982951416015625,-0.351617693901062,0.1717619001865387,-0.007751662749797106
1700006760981896400,9.992896484375,-0.34965386986732483,0.07278206199407578,0.016920659691095352
1700006760991841500,10.002841552734376,-0.332195520401001,-0.003385144053027034,0.03835058584809303
1700006761001786400,10.012786376953125,-0.29829534888267517,-0.04887699335813522,0.03807920962572098
1700006761011732500,10.022732421875,-0.24957308173179626,-0.0670781061053276,0.02611735463142395
1700006761021677600,10.032677490234375,-0.19292977452278137,-0.050328150391578674,0.021443773061037064
1700006761031622400,10.042622314453125,-0.15034636855125427,-0.01312299259006977,-0.003850398352369666
1700006761041567500,10.0525673828125,-0.10862208157777786,0.011710718274116516,-0.032769665122032166
1700006761051512600,10.0625126953125,-0.06597208976745605,0.02395060658454895,-0.04945836216211319
1700006761061457700,10.072457763671874,-0.020189424976706505,0.015310779213905334,-0.06847679615020752
1700006761071403500,10.082403564453125,0.03574201837182045,-0.005197691265493631,-0.06223407760262489
1700006761081348400,10.092348388671875,0.08969926089048386,-0.02064003050327301,-0.04538265988230705
1700006761091293700,10.102293701171876,0.13075189292430878,-0.015350992791354656,-0.010210293345153332
1700006761101238500,10.112238525390625,0.1524907350540161,0.003677292726933956,0.006076801102608442
1700006761111183400,10.122183349609376,0.17018131911754608,0.037209685891866684,0.0007590008899569511
1700006761121128400,10.13212841796875,0.18063955008983612,0.061406902968883514,-0.01684449426829815
1700006761131074300,10.14207421875,0.19153906404972076,0.05998876690864563,-0.028261465951800346
1700006761141019600,10.15201953125,0.19407306611537933,0.04386519268155098,-0.031439147889614105
1700006761150964500,10.161964599609375,0.1896737962961197,0.0095096156001091,-0.03537876158952713
1700006761160909300,10.171909423828126,0.18089787662029266,-0.013961355201900005,-0.04439196735620499
1700006761170854700,10.181854736328125,0.1714276820421219,-0.032705750316381454,-0.0546501949429512
1700006761180799500,10.191799560546874,0.1600210964679718,-0.05798766762018204,-0.06570950150489807
1700006761190744300,10.201744384765625,0.14890532195568085,-0.09014986455440521,-0.07656455039978027
1700006761200690400,10.2116904296875,0.1373615860939026,-0.11621582508087158,-0.09486313164234161
1700006761210635500,10.221635498046876,0.12985627353191376,-0.13426139950752258,-0.11619957536458969
1700006761220580600,10.23158056640625,0.13806413114070892,-0.15768550336360931,-0.1265566051006317
1700006761230525400,10.241525390625,0.14467541873455048,-0.1823333203792572,-0.12623010575771332
1700006761240470500,10.251470458984375,0.15702396631240845,-0.20937639474868774,-0.11345119774341583
1700006761250415600,10.26141552734375,0.16136598587036133,-0.23802322149276733,-0.09976653754711151
1700006761260361500,10.271361572265626,0.1641889363527298,-0.2460651695728302,-0.08543447405099869
1700006761270306600,10.281306640625,0.17988933622837067,-0.2464100420475006,-0.08010122925043106
1700006761280251400,10.29125146484375,0.20000499486923218,-0.23562423884868622,-0.07550913840532303
1700006761290196500,10.301196533203125,0.22210843861103058,-0.2220756709575653,-0.07247792929410934
1700006761300141600,10.3111416015625,0.2451290637254715,-0.21135830879211426,-0.0622311495244503
1700006761310086400,10.32108642578125,0.2648092806339264,-0.19182004034519196,-0.06875110417604446
1700006761320032500,10.331032470703125,0.2705249786376953,-0.18199962377548218,-0.08400488644838333
1700006761329977600,10.3409775390625,0.2705222964286804,-0.19624941051006317,-0.09783627837896347
1700006761339922400,10.35092236328125,0.2692548930644989,-0.19786220788955688,-0.12072828412055969
1700006761349867500,10.360867431640624,0.26185426115989685,-0.19252097606658936,-0.14389938116073608
1700006761359812600,10.3708125,0.250230073928833,-0.20352914929389954,-0.15220391750335693
1700006761369757400,10.38075732421875,0.24716319143772125,-0.19342432916164398,-0.15774010121822357
1700006761379703600,10.39070361328125,0.24569179117679596,-0.18764713406562805,-0.1299864947795868
1700006761389648400,10.4006484375,0.2393936812877655,-0.21984048187732697,-0.09618805348873138
1700006761399593500,10.410593505859374,0.21792539954185486,-0.2828673720359802,-0.09890501201152802
1700006761409538600,10.42053857421875,0.19257131218910217,-0.2834053337574005,-0.11505867540836334
1700006761419483400,10.4304833984375,0.16349971294403076,-0.28846216201782227,-0.1344052106142044
1700006761429428500,10.440428466796876,0.13537539541721344,-0.3242611587047577,-0.14937058091163635
1700006761439374300,10.450374267578125,0.11588505655527115,-0.35664334893226624,-0.1526409387588501
1700006761449319700,10.460319580078124,0.10674376040697098,-0.3991817533969879,-0.13476048409938812
1700006761459264500,10.470264404296875,0.1063552051782608,-0.4578184187412262,-0.10777093470096588
1700006761469209300,10.480209228515625,0.10584280639886856,-0.5243628621101379,-0.07903196662664413
1700006761479154700,10.49015478515625,0.10225872695446014,-0.5791634917259216,-0.04759601503610611
1700006761489099500,10.500099609375,0.08959273248910904,-0.631816029548645,-0.01563754864037037
1700006761499045600,10.510045654296874,0.06711965054273605,-0.6819271445274353,0.008957542479038239
1700006761508990500,10.519990478515625,0.04717150703072548,-0.7238730192184448,0.019482621923089027
1700006761518935600,10.529935546875,0.0310420710593462,-0.776526927947998,0.037575338035821915
1700006761528880600,10.539880615234376,0.01931430958211422,-0.8042461276054382,0.057381801307201385
1700006761538825500,10.549825439453125,0.012406602501869202,-0.8157501816749573,0.06632735580205917
1700006761548770300,10.559770263671876,0.008386294357478619,-0.8313685655593872,0.09087690711021423
1700006761558716400,10.56971630859375,-0.010721087455749512,-0.8473246693611145,0.11056140065193176
1700006761568661500,10.57966162109375,-0.04679813235998154,-0.8746649026870728,0.12706421315670013
1700006761578606600,10.589606689453126,-0.086204394698143,-0.9171103835105896,0.135949045419693
1700006761588551400,10.599551513671875,-0.13008476793766022,-0.976027250289917,0.12064892053604126
1700006761598496500,10.60949658203125,-0.17538140714168549,-1.044709324836731,0.09119755029678345
1700006761608441600,10.619441650390625,-0.21914219856262207,-1.0867912769317627,0.03905259445309639
1700006761618387500,10.629387451171874,-0.2481520175933838,-1.105351448059082,-0.003991545643657446
1700006761628332500,10.63933251953125,-0.25914981961250305,-1.121127724647522,0.0068001155741512775
1700006761638277600,10.649277587890625,-0.25562989711761475,-1.1344677209854126,0.03668664023280144
1700006761648222500,10.659222412109376,-0.24661403894424438,-1.1397069692611694,0.07263185828924179
1700006761658167600,10.66916748046875,-0.22939643263816833,-1.1516515016555786,0.1094852164387703
1700006761668112600,10.679112548828124,-0.2133873850107193,-1.1668975353240967,0.14495132863521576
1700006761678058800,10.689058837890625,-0.20303380489349365,-1.1895506381988525,0.18302787840366364
1700006761688003600,10.699003662109375,-0.19913147389888763,-1.20722234249115,0.1959705650806427
1700006761697948400,10.708948486328126,-0.20446684956550598,-1.1956634521484375,0.1775747835636139
1700006761707893500,10.7188935546875,-0.21422813832759857,-1.1563527584075928,0.14983530342578888
1700006761717838600,10.728838623046874,-0.21665401756763458,-1.11696195602417,0.11354999989271164
1700006761727783400,10.738783447265625,-0.21900585293769836,-1.0903186798095703,0.08177502453327179
1700006761737729500,10.7487294921875,-0.21246220171451569,-1.0792750120162964,0.04150776192545891
1700006761747674400,10.75867431640625,-0.1920943409204483,-1.0876080989837646,0.012545086443424225
1700006761757619700,10.76861962890625,-0.1575496792793274,-1.1114434003829956,-0.004089283756911755
1700006761767564500,10.778564453125,-0.11189857125282288,-1.1226131916046143,-0.00239205127581954
1700006761777509400,10.78850927734375,-0.06286205351352692,-1.1369364261627197,0.009269931353628635
1700006761787454700,10.798454833984374,-0.013492905534803867,-1.1622679233551025,0.02232101745903492
1700006761797400600,10.808400634765626,0.027418041601777077,-1.1737728118896484,0.032345157116651535
1700006761807345700,10.818345703125,0.0634588673710823,-1.1660735607147217,0.056300289928913116
1700006761817290500,10.82829052734375,0.0911400318145752,-1.1546396017074585,0.09297548234462738
1700006761827235600,10.838235595703125,0.12963388860225677,-1.1360893249511719,0.11252574622631073
1700006761837180700,10.8481806640625,0.1572817713022232,-1.1312352418899536,0.11807843297719955
1700006761847125500,10.85812548828125,0.14966166019439697,-1.1311291456222534,0.13924524188041687
1700006761857071400,10.8680712890625,0.16680896282196045,-1.1106071472167969,0.16013774275779724
1700006761867016400,10.878016357421876,0.18489821255207062,-1.0537645816802979,0.15033172070980072
1700006761876961500,10.88796142578125,0.1833418607711792,-1.0173741579055786,0.13996562361717224
1700006761886906600,10.89790673828125,0.17407779395580292,-1.00502347946167,0.15122121572494507
1700006761896851500,10.9078515625,0.15793797373771667,-0.9427574276924133,0.13033989071846008
1700006761906796500,10.917796630859375,0.14612844586372375,-0.8767613768577576,0.1319524347782135
1700006761916742700,10.92774267578125,0.12928129732608795,-0.8406283855438232,0.14481870830059052
1700006761926687500,10.9376875,0.10465876758098602,-0.8416718244552612,0.14292359352111816
1700006761936632600,10.947632568359374,0.08113346993923187,-0.8007968068122864,0.1293550580739975
1700006761946577700,10.95757763671875,0.05193137377500534,-0.7067776322364807,0.08337664604187012
1700006761956522500,10.9675224609375,0.024334900081157684,-0.6166251301765442,0.02652987837791443
1700006761966467600,10.977467529296876,-0.006987868342548609,-0.5306012630462646,-0.02015054225921631
1700006761976413000,10.987412841796875,-0.0300817359238863,-0.4590858221054077,-0.05221819877624512
1700006761986358000,10.99735791015625,-0.054007839411497116,-0.4034601151943207,-0.07267419993877411
1700006761996303000,11.00730322265625,-0.06715187430381775,-0.3523750901222229,-0.09150701016187668
1700006762006248000,11.017248046875,-0.06503971666097641,-0.3084033727645874,-0.1100415512919426
1700006762016193000,11.027193115234375,-0.061049237847328186,-0.261654257774353,-0.11981375515460968
1700006762026138000,11.03713818359375,-0.0583551861345768,-0.21107974648475647,-0.12038792669773102
1700006762036083000,11.0470830078125,-0.04735313355922699,-0.1664012223482132,-0.1107235848903656
1700006762046029000,11.057029052734375,-0.040883518755435944,-0.1302163302898407,-0.1136474683880806
1700006762055974000,11.066973876953124,-0.026545856148004532,-0.10967163741588593,-0.1156267300248146
1700006762065919000,11.0769189453125,-0.01563728228211403,-0.10896936058998108,-0.1080164834856987
1700006762075864000,11.086864013671875,-0.007019826211035252,-0.1149154007434845,-0.11890854686498642
1700006762085809000,11.096808837890626,0.0034791536163538694,-0.1141100600361824,-0.13836346566677094
1700006762095754000,11.10675390625,0.014970693737268448,-0.1264689862728119,-0.15741252899169922
1700006762105700000,11.1167001953125,0.019524432718753815,-0.15472672879695892,-0.17339761555194855
1700006762115645000,11.12664501953125,0.02436446212232113,-0.18681062757968903,-0.19408957660198212
1700006762125590000,11.136590087890625,0.027936292812228203,-0.22443203628063202,-0.20157119631767273
1700006762135535000,11.14653515625,0.04108405485749245,-0.26902320981025696,-0.1890556812286377
1700006762145480000,11.15647998046875,0.051954809576272964,-0.3149432837963104,-0.18023554980754852
1700006762155425000,11.166425048828126,0.0536150261759758,-0.3464477062225342,-0.16724544763565063
1700006762165371000,11.176370849609375,0.04525402933359146,-0.3756476640701294,-0.1568537950515747
1700006762175316000,11.18631591796875,0.034151311963796616,-0.4043288230895996,-0.16496790945529938
1700006762185261000,11.196260986328125,0.00663499953225255,-0.44192761182785034,-0.18398980796337128
1700006762195206000,11.206205810546875,-0.02161101996898651,-0.47170308232307434,-0.19537828862667084
1700006762205151000,11.21615087890625,-0.053474411368370056,-0.5079505443572998,-0.20304526388645172
1700006762215096000,11.226095947265625,-0.0812959223985672,-0.5546661615371704,-0.18259723484516144
1700006762225042200,11.236042236328124,-0.09995456039905548,-0.5920881032943726,-0.1467561572790146
1700006762234987000,11.245987060546875,-0.1082329973578453,-0.6043215990066528,-0.10752006620168686
1700006762244931800,11.255931884765625,-0.11897751688957214,-0.5864962339401245,-0.07545480877161026
1700006762254877200,11.265877197265626,-0.1315963715314865,-0.553889274597168,-0.055153798311948776
1700006762264822000,11.275822021484375,-0.13739700615406036,-0.5181917548179626,-0.04866793751716614
1700006762274766800,11.285766845703124,-0.14712686836719513,-0.49583718180656433,-0.03484320268034935
1700006762284713000,11.295712890625,-0.15194691717624664,-0.48525378108024597,-0.00452684098854661
1700006762294658000,11.305657958984375,-0.15495362877845764,-0.4995048940181732,0.039017971605062485
1700006762304603100,11.31560302734375,-0.1530183106660843,-0.5372389554977417,0.08887927234172821
1700006762314548000,11.3255478515625,-0.15045315027236938,-0.5764026045799255,0.13990037143230438
1700006762324493000,11.3354931640625,-0.1435726135969162,-0.6103475093841553,0.19265200197696686
1700006762334438100,11.345438232421875,-0.12518401443958282,-0.628666877746582,0.2391529232263565
1700006762344384000,11.355384033203125,-0.10575173050165176,-0.6257126331329346,0.2877899706363678
1700006762354329000,11.3653291015625,-0.09317708015441895,-0.5937927961349487,0.32647186517715454
1700006762364274000,11.37527392578125,-0.09316669404506683,-0.5304590463638306,0.3453238308429718
1700006762374219000,11.385218994140626,-0.09886825829744339,-0.43104806542396545,0.3185023367404938
1700006762384164000,11.3951640625,-0.10271013528108597,-0.3353111445903778,0.2623613178730011
1700006762394109000,11.40510888671875,-0.10587822645902634,-0.24659407138824463,0.205116406083107
1700006762404055000,11.415054931640626,-0.11403975635766983,-0.13947267830371857,0.1373024582862854
1700006762414000000,11.425000244140625,-0.12612144649028778,-0.06476914137601852,0.06962861120700836
1700006762423945000,11.434945068359376,-0.1441531777381897,-0.04783410206437111,-0.014363492839038372
1700006762433890000,11.44489013671875,-0.1528121829032898,-0.06239387020468712,-0.07098416239023209
1700006762443835100,11.454835205078124,-0.13815361261367798,-0.12594328820705414,-0.046422626823186874
1700006762453780000,11.464780029296875,-0.12153308838605881,-0.18871665000915527,-0.032393358647823334
1700006762463726000,11.47472607421875,-0.10499672591686249,-0.2194679081439972,-0.037393711507320404
1700006762473671000,11.4846708984375,-0.08943267911672592,-0.23203402757644653,-0.029560022056102753
1700006762483616000,11.494615966796875,-0.06293795257806778,-0.24144963920116425,-0.01577017456293106
1700006762493561000,11.50456103515625,-0.022240590304136276,-0.24119344353675842,0.007693605963140726
1700006762503506000,11.514505859375,0.02701643668115139,-0.2673443555831909,0.0679718628525734
1700006762513451000,11.524450927734375,0.07514295727014542,-0.30177929997444153,0.13177533447742462
1700006762523396900,11.53439697265625,0.11142958700656891,-0.3202269971370697,0.16895067691802979
1700006762533342200,11.54434228515625,0.14202824234962463,-0.34523674845695496,0.16602012515068054
1700006762543287000,11.554287109375,0.17009076476097107,-0.37798404693603516,0.14082369208335876
1700006762553232000,11.56423193359375,0.18928684294223785,-0.41755008697509766,0.10927775502204895
1700006762563177200,11.57417724609375,0.20059488713741302,-0.4558072090148926,0.07865113765001297
1700006762573122000,11.5841220703125,0.21666492521762848,-0.5059865117073059,0.05691840872168541
1700006762583068200,11.594068115234375,0.23653210699558258,-0.5496069192886353,0.04689027741551399
1700006762593013000,11.604012939453124,0.2421516478061676,-0.5957493782043457,0.03864992409944534
1700006762602958000,11.6139580078125,0.26348116993904114,-0.6272671222686768,0.04349208250641823
1700006762612903200,11.623903076171874,0.2783264219760895,-0.6392257809638977,0.05344804376363754
1700006762622848000,11.633847900390625,0.2812069058418274,-0.6606218814849854,0.07147125154733658
1700006762632792800,11.643792724609375,0.26782506704330444,-0.6816155910491943,0.08136489987373352
1700006762642738200,11.65373828125,0.2393108606338501,-0.6901901364326477,0.06715293973684311
1700006762652684000,11.66368408203125,0.20265324413776398,-0.6961165070533752,0.04061533510684967
1700006762662629000,11.673629150390624,0.17559951543807983,-0.700475811958313,0.02275324985384941
1700006762672574000,11.683573974609375,0.14597958326339722,-0.7055033445358276,0.016697220504283905
1700006762682519000,11.69351904296875,0.1288253515958786,-0.7020303010940552,0.02996056154370308
1700006762692464000,11.703464111328126,0.106462262570858,-0.6977359652519226,0.044677987694740295
1700006762702409000,11.713408935546875,0.09119675308465958,-0.6880550980567932,0.057191383093595505
1700006762712354800,11.723354736328124,0.06768450140953064,-0.6777020692825317,0.0475936159491539
1700006762722300200,11.733300048828125,0.04225238040089607,-0.6877424120903015,0.041555166244506836
1700006762732245000,11.743244873046875,0.021160146221518517,-0.7031501531600952,0.0366315133869648
1700006762742190000,11.753190185546876,0.00344586418941617,-0.7067861557006836,0.03711913898587227
1700006762752135000,11.763135009765625,-0.006502107717096806,-0.6991519331932068,0.028328577056527138
1700006762762080000,11.773080078125,-0.008775648660957813,-0.6875126361846924,0.03573935478925705
1700006762772026000,11.783026123046875,-0.018553709611296654,-0.6653662919998169,0.05031590163707733
1700006762781971000,11.792970947265625,-0.018502311781048775,-0.6362392902374268,0.06065402552485466
1700006762791916000,11.802916015625,-0.025256887078285217,-0.606029212474823,0.06780141592025757
1700006762801861000,11.812861083984375,-0.03332040458917618,-0.5807328820228577,0.07183238118886948
1700006762811806000,11.822805908203126,-0.04085448756814003,-0.5566334128379822,0.08075343817472458
1700006762821751000,11.8327509765625,-0.05637778714299202,-0.5311371088027954,0.09685677289962769
1700006762831697000,11.84269677734375,-0.06638035178184509,-0.5055723786354065,0.12103401124477386
1700006762841642000,11.85264208984375,-0.07187232375144958,-0.4673677086830139,0.15498745441436768
1700006762851587000,11.862587158203125,-0.07845672219991684,-0.42950689792633057,0.18906526267528534
1700006762861532000,11.872531982421876,-0.08483952283859253,-0.3901301920413971,0.22770772874355316
1700006762871477200,11.882477294921875,-0.08878286927938461,-0.33924517035484314,0.2666572630405426
1700006762881422000,11.892422119140624,-0.09754946082830429,-0.2811312675476074,0.2958020865917206
1700006762891368000,11.902367919921875,-0.11100215464830399,-0.2305660992860794,0.30753758549690247
1700006762901313000,11.91231298828125,-0.13473224639892578,-0.17655107378959656,0.30273696780204773
1700006762911257000,11.922257080078126,-0.15779149532318115,-0.13142620027065277,0.2877518832683563
1700006762921203000,11.932202880859375,-0.1740594208240509,-0.07407049834728241,0.272603839635849
1700006762931148000,11.94214794921875,-0.18040093779563904,-0.013674799352884293,0.25733938813209534
1700006762941092900,11.9520927734375,-0.1820656806230545,0.021213941276073456,0.2587660551071167
1700006762951038200,11.9620380859375,-0.18693339824676514,0.022181201726198196,0.27728354930877686
1700006762960983000,11.971983154296876,-0.18725191056728363,0.03940333053469658,0.27856531739234924
1700006762970927900,11.981927978515625,-0.19001254439353943,-0.004767324775457382,0.3152242600917816
1700006762980873500,11.99187353515625,-0.2050972282886505,-0.09087558090686798,0.3458743095397949
1700006762990818600,12.001818603515625,-0.22947366535663605,-0.1675272136926651,0.34989434480667114
1700006763000763600,12.011763671875,-0.26043957471847534,-0.18613392114639282,0.3211532533168793
1700006763010708500,12.02170849609375,-0.2822711169719696,-0.1962536722421646,0.25341469049453735
1700006763020653600,12.031653564453125,-0.2919010818004608,-0.2364780455827713,0.2139064222574234
1700006763030598700,12.0415986328125,-0.3029297888278961,-0.2781890034675598,0.2147650271654129
1700006763040544500,12.05154443359375,-0.30827581882476807,-0.31728073954582214,0.20574970543384552
1700006763050489600,12.061489501953124,-0.3087410628795624,-0.36690422892570496,0.1831836700439453
1700006763060434700,12.0714345703125,-0.28608500957489014,-0.4178372025489807,0.17812871932983398
1700006763070379500,12.081379638671875,-0.23733638226985931,-0.47033262252807617,0.18595388531684875
1700006763080324600,12.09132470703125,-0.1687069982290268,-0.5114379525184631,0.19100163877010345
1700006763090269400,12.10126953125,-0.08699242025613785,-0.5347422361373901,0.17977988719940186
1700006763100215600,12.111215576171874,-0.010243848897516727,-0.578235924243927,0.17226044833660126
1700006763110160600,12.12116064453125,0.05678924545645714,-0.6356208920478821,0.17266631126403809
1700006763120105500,12.13110546875,0.12346494942903519,-0.6996366381645203,0.16935387253761292
1700006763130050600,12.141050537109376,0.17280372977256775,-0.7362478971481323,0.15408091247081757
1700006763139995600,12.15099560546875,0.20375366508960724,-0.7443455457687378,0.12499413639307022
1700006763149940500,12.1609404296875,0.22270311415195465,-0.7453716397285461,0.08851255476474762
1700006763159885600,12.170885498046875,0.2447809875011444,-0.7477924823760986,0.0539575070142746
1700006763169831400,12.18083154296875,0.2703321576118469,-0.7559015154838562,0.015252189710736275
1700006763179776800,12.19077685546875,0.28320586681365967,-0.7694429159164429,-0.027849208563566208
1700006763189721600,12.2007216796875,0.2952452301979065,-0.7988455295562744,-0.04765620082616806
1700006763199666400,12.21066650390625,0.3008378744125366,-0.8322133421897888,-0.05320969223976135
1700006763209611800,12.22061181640625,0.30733224749565125,-0.8618841171264648,-0.041012149304151535
1700006763219556600,12.230556640625,0.3096180260181427,-0.8844975829124451,-0.030834078788757324
