time,seconds_elapsed,z,y,x
1700006751005597700,0.01659765625,-165.68214416503906,53.441314697265625,32.70487976074219
1700006751015510500,0.026510498046875,-165.85507202148438,53.34898376464844,33.26307678222656
1700006751025424400,0.03642431640625,-165.80201721191406,53.53741455078125,32.68455505371094
1700006751035337500,0.04633740234375,-165.9435577392578,54.0946044921875,32.84196472167969
1700006751045251600,0.05625146484375,-165.8939971923828,53.54833984375,32.85150146484375
1700006751055164700,0.06616455078125,-165.76199340820312,53.50724792480469,33.18629455566406
1700006751065077500,0.076077392578125,-165.38938903808594,53.46002197265625,33.339996337890625
1700006751074990600,0.085990478515625,-165.71925354003906,53.75251770019531,32.86509704589844
1700006751084903400,0.0959033203125,-166.1474609375,53.72151184082031,33.10833740234375
1700006751094817300,0.1058173828125,-165.66091918945312,54.09019470214844,32.714385986328125
1700006751104729300,0.115729248046875,-165.84449768066406,54.60882568359375,32.73876953125
1700006751114641400,0.125641357421875,-165.9996795654297,54.599151611328125,32.863800048828125
1700006751124553500,0.135553466796875,-166.00390625,54.89341735839844,32.54443359375
1700006751134465500,0.145465576171875,-165.81793212890625,55.05821228027344,32.66900634765625
1700006751144377300,0.15537744140625,-166.34230041503906,55.390869140625,32.57173156738281
1700006751154289400,0.165289306640625,-165.88401794433594,55.50593566894531,32.93157958984375
1700006751164201500,0.175201416015625,-166.2125701904297,55.725494384765625,32.69566345214844
1700006751174113500,0.185113525390625,-166.2430419921875,55.6900634765625,32.93324279785156
1700006751184025600,0.195025634765625,-166.36611938476562,55.7886962890625,32.76301574707031
1700006751193937700,0.204937744140625,-166.11532592773438,55.722442626953125,32.704864501953125
1700006751203849500,0.214849365234375,-166.32672119140625,55.74150085449219,32.62583923339844
1700006751213762600,0.224762451171875,-166.1560516357422,55.71846008300781,32.58088684082031
1700006751223674600,0.234674560546875,-166.33465576171875,56.08338928222656,32.993316650390625
1700006751233587500,0.24458740234375,-166.66371154785156,55.62120056152344,32.98335266113281
1700006751243502600,0.254502685546875,-166.44361877441406,55.58628845214844,32.61767578125
1700006751253415700,0.264415771484375,-165.9614715576172,55.791259765625,32.519866943359375
1700006751263328500,0.27432861328125,-165.7761993408203,55.791259765625,32.14735412597656
1700006751273242400,0.284242431640625,-166.23861694335938,55.63606262207031,32.70098876953125
1700006751283155500,0.294155517578125,-165.83880615234375,55.51708984375,32.398193359375
1700006751293068300,0.304068359375,-166.4032440185547,55.82106018066406,32.04695129394531
1700006751302982700,0.313982666015625,-166.29019165039062,55.86793518066406,32.2406005859375
1700006751312896500,0.323896484375,-165.68919372558594,55.89837646484375,32.45393371582031
1700006751322808600,0.33380859375,-166.4292755126953,55.786895751953125,32.63768005371094
1700006751332721400,0.343721435546875,-165.97935485839844,55.95013427734375,32.58934020996094
1700006751342634500,0.353634521484375,-166.38015747070312,55.92655944824219,32.91767883300781
1700006751352548600,0.363548583984375,-165.9860076904297,56.31202697753906,33.14048767089844
1700006751362462500,0.37346240234375,-165.73118591308594,56.170684814453125,33.21885681152344
1700006751372375600,0.38337548828125,-165.9222412109375,56.43353271484375,33.386199951171875
1700006751382288400,0.393288330078125,-165.884033203125,56.48930358886719,33.401641845703125
1700006751392202500,0.403202392578125,-165.7380828857422,56.2056884765625,33.62339782714844
1700006751402116600,0.41311669921875,-165.3414764404297,56.77961730957031,33.51329040527344
1700006751412030500,0.423030517578125,-165.87686157226562,56.63096618652344,33.356689453125
1700006751421942500,0.432942626953125,-166.11282348632812,56.9996337890625,33.15571594238281
1700006751431855400,0.44285546875,-165.68394470214844,57.25660705566406,33.60479736328125
1700006751441766400,0.452766357421875,-165.4014129638672,57.14381408691406,33.275665283203125
1700006751451679500,0.462679443359375,-165.53463745117188,57.20289611816406,33.37336730957031
1700006751461592300,0.47259228515625,-165.7247314453125,57.39628601074219,33.54652404785156
1700006751471506700,0.482506591796875,-165.72564697265625,57.31889343261719,33.29991149902344
1700006751481419500,0.49241943359375,-166.03338623046875,57.115997314453125,33.58268737792969
1700006751491332600,0.50233251953125,-165.59107971191406,57.09007263183594,33.02435302734375
1700006751501246500,0.51224658203125,-165.70516967773438,57.163848876953125,32.95426940917969
1700006751511160600,0.52216064453125,-165.5093994140625,57.54180908203125,32.95179748535156
1700006751521073700,0.53207373046875,-165.6683349609375,57.28459167480469,32.42527770996094
1700006751530986500,0.541986572265625,-165.42369079589844,57.316802978515625,32.17158508300781
1700006751540899600,0.551899658203125,-166.0130157470703,57.421051025390625,32.01380920410156
1700006751550813400,0.5618134765625,-165.69021606445312,57.48570251464844,31.680709838867188
1700006751560727600,0.5717275390625,-165.1509246826172,57.69654846191406,31.719482421875
1700006751570640600,0.581640625,-165.50311279296875,57.80108642578125,31.679519653320312
1700006751580553500,0.591553466796875,-164.8099822998047,57.69404602050781,31.549560546875
1700006751590467300,0.60146728515625,-165.0080108642578,57.61761474609375,31.115875244140625
1700006751600381700,0.611381591796875,-165.4481201171875,57.340545654296875,31.146896362304688
1700006751610294500,0.62129443359375,-165.31060791015625,56.97367858886719,31.341156005859375
1700006751620207600,0.63120751953125,-165.42127990722656,57.05491638183594,31.338790893554688
1700006751630120400,0.641120361328125,-165.37667846679688,56.75160217285156,31.550445556640625
1700006751640033500,0.651033447265625,-164.8229522705078,56.6368408203125,31.51629638671875
1700006751649945600,0.660945556640625,-165.03814697265625,56.56748962402344,31.455108642578125
1700006751659858400,0.6708583984375,-165.2679901123047,56.67335510253906,31.374130249023438
1700006751669770500,0.6807705078125,-164.97645568847656,56.864227294921875,31.085800170898438
1700006751679683300,0.690683349609375,-165.4435577392578,57.128814697265625,30.923873901367188
1700006751689595400,0.700595458984375,-165.88754272460938,57.20610046386719,30.815170288085938
1700006751699509500,0.710509521484375,-165.29736328125,57.701080322265625,30.747955322265625
1700006751709421600,0.720421630859375,-165.4260711669922,57.99449157714844,30.81195068359375
1700006751719333400,0.73033349609375,-165.191162109375,58.09999084472656,31.239501953125
1700006751729245400,0.740245361328125,-165.5876007080078,58.54888916015625,31.585769653320312
1700006751739157500,0.750157470703125,-165.31011962890625,58.60066223144531,32.025970458984375
1700006751749069600,0.760069580078125,-165.6805877685547,58.69230651855469,32.21073913574219
1700006751758983700,0.769983642578125,-165.63352966308594,58.799407958984375,32.70574951171875
1700006751768894500,0.77989453125,-165.8175048828125,58.45933532714844,33.42417907714844
1700006751778806500,0.789806640625,-165.63023376464844,58.33283996582031,33.606842041015625
1700006751788718300,0.79971826171875,-165.7312774658203,58.12266540527344,34.039825439453125
1700006751798629600,0.809629638671875,-166.03640747070312,58.070770263671875,34.24632263183594
1700006751808541400,0.81954150390625,-166.08392333984375,57.50523376464844,34.41357421875
1700006751818454500,0.82945458984375,-165.9903564453125,57.24613952636719,34.806060791015625
1700006751828364500,0.839364501953125,-165.9544219970703,56.955902099609375,35.221466064453125
1700006751838276600,0.849276611328125,-166.34490966796875,56.567047119140625,35.579803466796875
1700006751848187400,0.8591875,-166.17062377929688,56.28082275390625,35.54106140136719
1700006751858099500,0.869099365234375,-166.26583862304688,56.04988098144531,35.56050109863281
1700006751868011500,0.879011474609375,-165.69554138183594,55.81822204589844,35.48594665527344
1700006751877923600,0.888923583984375,-166.3201904296875,55.82640075683594,35.24151611328125
1700006751887835400,0.89883544921875,-166.4984130859375,55.90238952636719,36.49540710449219
1700006751897747500,0.90874755859375,-165.86111450195312,55.59742736816406,36.428924560546875
1700006751907660500,0.91866064453125,-166.1830596923828,55.53935241699219,36.525726318359375
1700006751917573400,0.928573486328125,-166.6420440673828,55.437713623046875,36.143524169921875
1700006751927487500,0.938487548828125,-166.36264038085938,55.31626892089844,36.97700500488281
1700006751937399600,0.948399658203125,-166.27783203125,55.30039978027344,37.107635498046875
1700006751947311400,0.958311279296875,-166.24777221679688,55.035400390625,37.44598388671875
1700006751957224700,0.968224609375,-166.3082275390625,54.84901428222656,37.70948791503906
1700006751967137500,0.978137451171875,-166.16148376464844,54.9462890625,38.2418212890625
1700006751977050400,0.98805029296875,-166.56387329101562,54.4310302734375,38.71644592285156
1700006751986963200,0.997963134765625,-166.5667724609375,53.90571594238281,38.94697570800781
1700006751996875300,1.007875244140625,-166.2596893310547,53.457763671875,39.61741638183594
1700006752006788400,1.017788330078125,-166.60227966308594,53.18145751953125,40.16131591796875
1700006752016701200,1.027701171875,-166.667724609375,52.927459716796875,40.581512451171875
1700006752026613200,1.03761328125,-166.9140625,52.261810302734375,41.077667236328125
1700006752036528400,1.0475283203125,-166.91177368164062,51.735626220703125,41.483306884765625
1700006752046440400,1.0574404296875,-167.30593872070312,51.22050476074219,41.740875244140625
1700006752056353300,1.067353271484375,-166.6878204345703,50.694488525390625,42.094512939453125
1700006752066266400,1.077266357421875,-166.9043731689453,49.9713134765625,42.23710632324219
1700006752076179200,1.08717919921875,-166.80169677734375,49.288909912109375,42.200592041015625
1700006752086091300,1.09709130859375,-166.8342742919922,48.42402648925781,42.795440673828125
1700006752096004400,1.10700439453125,-166.86236572265625,48.31501770019531,43.06095886230469
1700006752105918200,1.116918212890625,-167.0270233154297,47.89453125,43.01737976074219
1700006752115831300,1.126831298828125,-166.7957000732422,47.56837463378906,43.46495056152344
1700006752125744400,1.136744384765625,-167.30418395996094,47.32916259765625,43.838958740234375
1700006752135657200,1.1466572265625,-167.03778076171875,47.035980224609375,44.08821105957031
1700006752145569300,1.1565693359375,-166.8728790283203,46.4735107421875,44.2755126953125
1700006752155481300,1.1664814453125,-166.9862518310547,45.892425537109375,44.88087463378906
1700006752165393400,1.176393310546875,-166.65660095214844,45.16337585449219,44.86085510253906
1700006752175306200,1.18630615234375,-166.20855712890625,44.160675048828125,45.17372131347656
1700006752185219300,1.19621923828125,-166.1409454345703,42.91438293457031,45.83247375488281
1700006752195131400,1.20613134765625,-165.4335174560547,41.39704895019531,46.11466979980469
1700006752205044200,1.216044189453125,-164.5089569091797,39.74409484863281,45.92314147949219
1700006752214957300,1.225957275390625,-163.5625457763672,37.52040100097656,45.64495849609375
1700006752224869400,1.235869384765625,-162.3081817626953,34.99723815917969,45.014495849609375
1700006752234782200,1.2457822265625,-161.2025146484375,32.502899169921875,44.01336669921875
1700006752244693200,1.255693359375,-159.4317169189453,29.503219604492188,42.823455810546875
1700006752254605300,1.265605224609375,-157.38536071777344,26.678329467773438,40.94000244140625
1700006752264517400,1.275517333984375,-155.28897094726562,23.708099365234375,39.332244873046875
1700006752274429400,1.285429443359375,-153.28875732421875,20.836502075195312,37.68193054199219
1700006752284341200,1.29534130859375,-150.57635498046875,18.086776733398438,36.19163513183594
1700006752294254300,1.30525439453125,-147.14212036132812,15.295028686523438,35.29197692871094
1700006752304167200,1.315167236328125,-144.11712646484375,13.053726196289062,34.37188720703125
1700006752314079200,1.325079345703125,-141.2298126220703,10.856704711914062,33.85713195800781
1700006752323992300,1.334992431640625,-139.05862426757812,9.2916259765625,33.10920715332031
1700006752333904400,1.344904296875,-135.7920379638672,7.4429931640625,32.17054748535156
1700006752343818200,1.354818359375,-132.81736755371094,6.6094512939453125,31.989883422851562
1700006752353731000,1.36473095703125,-130.9407501220703,5.8034820556640625,31.411407470703125
1700006752363645400,1.3746455078125,-128.76995849609375,4.9595794677734375,31.143203735351562
1700006752373557200,1.38455712890625,-126.62998962402344,4.59619140625,31.208908081054688
1700006752383469300,1.39446923828125,-124.49705505371094,3.8717803955078125,31.099884033203125
1700006752393382400,1.40438232421875,-123.10963439941406,3.4385986328125,30.68310546875
1700006752403296300,1.414296142578125,-121.78074645996094,3.091094970703125,31.16644287109375
1700006752413210000,1.424210205078125,-119.40495300292969,2.6120452880859375,31.180557250976562
1700006752423124200,1.434124267578125,-117.95187377929688,2.4361114501953125,30.979248046875
1700006752433037300,1.444037353515625,-117.29827880859375,2.4545745849609375,30.660781860351562
1700006752442951200,1.453951171875,-115.77082824707031,2.41815185546875,31.519256591796875
1700006752452864300,1.4638642578125,-114.76091003417969,2.2194976806640625,32.062164306640625
1700006752462777300,1.47377734375,-113.31706237792969,1.779510498046875,32.21244812011719
1700006752472690400,1.4836904296875,-112.26237487792969,1.8929595947265625,32.21632385253906
1700006752482604300,1.493604248046875,-111.35012817382812,1.5098419189453125,32.514801025390625
1700006752492517000,1.50351708984375,-110.19232177734375,1.84478759765625,32.387664794921875
1700006752502433300,1.513433349609375,-109.00283813476562,1.6312408447265625,32.880889892578125
1700006752512347100,1.52334716796875,-107.13688659667969,1.2392730712890625,33.42814636230469
1700006752522260200,1.53326025390625,-106.50889587402344,1.2592620849609375,34.30735778808594
1700006752532173000,1.543173095703125,-105.23919677734375,1.290069580078125,35.60856628417969
1700006752542088200,1.553088134765625,-103.57211303710938,1.0936279296875,36.10371398925781
1700006752552002300,1.563002197265625,-101.88417053222656,1.1486968994140625,36.81462097167969
1700006752561916400,1.57291650390625,-99.96113586425781,1.0237884521484375,37.74951171875
1700006752571830300,1.582830322265625,-98.81611633300781,1.11376953125,38.76220703125
1700006752581743400,1.592743408203125,-97.57801818847656,1.2254638671875,39.4764404296875
1700006752591656200,1.60265625,-97.06480407714844,1.62701416015625,40.07298278808594
1700006752601569300,1.6125693359375,-97.60055541992188,1.6313934326171875,40.82737731933594
1700006752611483400,1.6224833984375,-98.51544189453125,1.36590576171875,41.15965270996094
1700006752621396200,1.632396240234375,-99.09832763671875,1.498748779296875,42.13819885253906
1700006752631309300,1.642309326171875,-100.15971374511719,1.6309661865234375,42.06475830078125
1700006752641222100,1.65222216796875,-99.66505432128906,1.7116546630859375,42.616943359375
1700006752651135200,1.66213525390625,-99.21437072753906,1.8166351318359375,42.42547607421875
1700006752661048000,1.672048095703125,-98.49433898925781,2.2255859375,42.291168212890625
1700006752670961400,1.68196142578125,-97.1722412109375,2.148529052734375,43.000335693359375
1700006752680875300,1.691875244140625,-95.92996215820312,2.565093994140625,42.9776611328125
1700006752690789000,1.7017890625,-95.21037292480469,2.7330322265625,42.95928955078125
1700006752700702200,1.7117021484375,-94.82429504394531,2.686309814453125,43.00624084472656
1700006752710615000,1.721614990234375,-94.83833312988281,2.6346588134765625,43.09226989746094
1700006752720527000,1.731527099609375,-94.69485473632812,2.8460845947265625,43.10247802734375
1700006752730439200,1.741439208984375,-93.40660095214844,2.8415069580078125,43.00225830078125
1700006752740352300,1.751352294921875,-93.82472229003906,2.9945068359375,42.60084533691406
1700006752750263300,1.76126318359375,-93.06437683105469,2.9217071533203125,42.696441650390625
1700006752760175000,1.771175048828125,-92.30738830566406,3.1533203125,42.59022521972656
1700006752770087200,1.781087158203125,-91.659912109375,3.31292724609375,42.47174072265625
1700006752779998200,1.790998291015625,-91.158935546875,3.491424560546875,42.360015869140625
1700006752789910300,1.80091015625,-91.08078002929688,3.4956817626953125,42.59918212890625
1700006752799823400,1.8108232421875,-90.82548522949219,3.508209228515625,42.548675537109375
1700006752809735400,1.8207353515625,-90.83045959472656,3.35748291015625,42.0557861328125
1700006752819648300,1.830648193359375,-90.08323669433594,3.6920318603515625,41.86927795410156
1700006752829561300,1.840561279296875,-89.48760986328125,3.82611083984375,42.09925842285156
1700006752839474200,1.85047412109375,-89.55520629882812,4.101226806640625,42.14984130859375
1700006752849386200,1.86038623046875,-89.31974792480469,3.8902587890625,42.26094055175781
1700006752859298300,1.87029833984375,-88.59228515625,3.8321685791015625,42.08058166503906
1700006752869210400,1.88021044921875,-88.24644470214844,4.075042724609375,41.52972412109375
1700006752879123200,1.890123291015625,-88.634765625,4.3645172119140625,41.06925964355469
1700006752889036300,1.900036376953125,-88.79475402832031,4.083465576171875,40.59394836425781
1700006752898949000,1.90994921875,-89.05081176757812,4.1053009033203125,40.60734558105469
1700006752908861200,1.919861083984375,-88.72459411621094,4.3840789794921875,40.318878173828125
1700006752918773200,1.929773193359375,-89.01638793945312,4.4394378662109375,40.00927734375
1700006752928686300,1.939686279296875,-89.896484375,4.2739105224609375,39.94917297363281
1700006752938599400,1.949599365234375,-89.6624755859375,4.2202606201171875,39.98542785644531
1700006752948513300,1.95951318359375,-90.27328491210938,4.1324310302734375,40.20811462402344
1700006752958426000,1.969426025390625,-91.2060546875,3.95477294921875,40.15325927734375
1700006752968336600,1.979336669921875,-91.90565490722656,4.230926513671875,40.053863525390625
1700006752978248700,1.989248779296875,-91.88259887695312,3.9644317626953125,39.44624328613281
1700006752988159700,1.99915966796875,-91.99005126953125,3.9913177490234375,39.80487060546875
1700006752998070800,2.00907080078125,-92.65937805175781,3.930084228515625,39.9688720703125
1700006753007982600,2.018982666015625,-93.03962707519531,4.32244873046875,39.85859680175781
1700006753017893600,2.0288935546875,-93.42213439941406,4.14373779296875,39.94990539550781
1700006753027804700,2.0388046875,-93.46519470214844,4.1301727294921875,40.26188659667969
1700006753037715700,2.0487158203125,-93.93937683105469,3.9375457763671875,40.471038818359375
1700006753047626500,2.05862646484375,-94.04583740234375,4.1953277587890625,40.70146179199219
1700006753057536500,2.06853662109375,-94.41641235351562,4.1403961181640625,40.889251708984375
1700006753067447600,2.078447509765625,-94.97128295898438,4.0909881591796875,41.668121337890625
1700006753077358600,2.088358642578125,-94.96165466308594,4.3063812255859375,41.88774108886719
1700006753087269600,2.09826953125,-95.256591796875,4.206451416015625,42.11260986328125
1700006753097179600,2.1081796875,-95.14814758300781,4.5229034423828125,43.01234436035156
1700006753107090700,2.118090576171875,-95.37513732910156,4.2462615966796875,43.00575256347656
1700006753117001500,2.12800146484375,-96.32670593261719,4.4550018310546875,43.430389404296875
1700006753126912500,2.13791259765625,-96.33830261230469,4.3130035400390625,43.74919128417969
1700006753136823600,2.147823486328125,-96.81297302246094,4.5561065673828125,44.038482666015625
1700006753146733600,2.157733642578125,-97.40711975097656,4.5794830322265625,44.259033203125
1700006753156644600,2.16764453125,-97.84877014160156,4.4218902587890625,45.05108642578125
1700006753166555600,2.1775556640625,-98.38575744628906,4.4464569091796875,44.98497009277344
1700006753176467700,2.1874677734375,-98.41799926757812,4.551361083984375,45.28875732421875
1700006753186377500,2.19737744140625,-98.83607482910156,4.9421234130859375,45.51744079589844
1700006753196288500,2.20728857421875,-98.94845581054688,5.1899261474609375,45.785064697265625
1700006753206199600,2.217199462890625,-99.57891845703125,5.054718017578125,46.134307861328125
1700006753216111600,2.227111572265625,-100.09971618652344,5.0096588134765625,46.68174743652344
1700006753226022400,2.2370224609375,-99.80357360839844,5.2928009033203125,46.78224182128906
1700006753235933400,2.246933349609375,-100.09127807617188,4.85302734375,47.09080505371094
1700006753245844500,2.256844482421875,-100.41569519042969,5.4033203125,47.35552978515625
1700006753255755800,2.266755859375,-100.62663269042969,5.569549560546875,47.899444580078125
1700006753265668600,2.276668701171875,-100.97663879394531,5.5148773193359375,48.18183898925781
1700006753275580700,2.28658056640625,-100.30534362792969,5.7262725830078125,48.17384338378906
1700006753285491700,2.29649169921875,-100.57609558105469,5.8412017822265625,48.68391418457031
1700006753295402500,2.306402587890625,-99.7166748046875,5.59869384765625,48.566192626953125
1700006753305313500,2.3163134765625,-99.61122131347656,6.0184326171875,48.991912841796875
1700006753315224600,2.326224609375,-98.98773193359375,6.1194000244140625,49.415008544921875
1700006753325135600,2.336135498046875,-99.4056396484375,6.09710693359375,49.71665954589844
1700006753335045600,2.346045654296875,-98.9429931640625,6.20355224609375,50.268157958984375
1700006753344956700,2.355956787109375,-98.34130859375,6.3301239013671875,50.43328857421875
1700006753354867700,2.36586767578125,-98.36544799804688,6.1985931396484375,50.62443542480469
1700006753364779800,2.37577978515625,-98.39505004882812,6.292877197265625,50.97389221191406
1700006753374691600,2.385691650390625,-98.8504638671875,6.54107666015625,51.42189025878906
1700006753384603400,2.395603271484375,-98.75688171386719,6.38427734375,51.81278991699219
1700006753394515500,2.405515380859375,-99.42340087890625,6.377593994140625,52.63584899902344
1700006753404427500,2.415427490234375,-99.19309997558594,6.3540191650390625,52.899505615234375
1700006753414339600,2.425339599609375,-99.11746215820312,6.4590606689453125,52.89447021484375
1700006753424251600,2.435251708984375,-99.10536193847656,6.4770965576171875,53.07952880859375
1700006753434163500,2.44516357421875,-99.09269714355469,6.365325927734375,53.323028564453125
1700006753444075500,2.455075439453125,-98.40325927734375,6.3977813720703125,53.480743408203125
1700006753453987600,2.464987548828125,-98.47215270996094,6.2284088134765625,53.582611083984375
1700006753463900700,2.474900634765625,-98.60420227050781,6.40081787109375,53.28773498535156
1700006753473811700,2.484811767578125,-98.49649047851562,6.2598724365234375,53.55613708496094
1700006753483722800,2.49472265625,-98.20120239257812,5.98443603515625,53.43336486816406
1700006753493633500,2.504633544921875,-98.48431396484375,6.2625885009765625,53.49186706542969
1700006753503544600,2.514544677734375,-97.99569702148438,5.77252197265625,53.357330322265625
1700006753513456600,2.52445654296875,-98.72673034667969,5.66119384765625,53.40338134765625
1700006753523368700,2.53436865234375,-98.37628173828125,5.468170166015625,53.192718505859375
1700006753533280500,2.544280517578125,-98.88621520996094,5.5700836181640625,53.36195373535156
1700006753543191600,2.554191650390625,-98.89292907714844,5.754974365234375,53.314361572265625
1700006753553103600,2.564103515625,-98.71295166015625,5.044219970703125,52.68345642089844
1700006753563014400,2.574014404296875,-98.60728454589844,5.33709716796875,52.81578063964844
1700006753572924700,2.583924560546875,-99.36445617675781,5.16705322265625,52.377044677734375
1700006753582835700,2.593835693359375,-99.446044921875,5.0961761474609375,51.98101806640625
1700006753592746500,2.60374658203125,-99.81634521484375,5.2682952880859375,51.6614990234375
1700006753602657500,2.613657470703125,-100.07493591308594,5.295745849609375,51.85394287109375
1700006753612569600,2.623569580078125,-100.03900146484375,4.8494720458984375,51.82051086425781
1700006753622481700,2.633481689453125,-100.25941467285156,4.902801513671875,51.312408447265625
1700006753632395500,2.6433955078125,-100.95947265625,4.639495849609375,51.0760498046875
1700006753642309600,2.6533095703125,-100.79356384277344,4.8896026611328125,51.073333740234375
1700006753652222700,2.66322265625,-100.799560546875,4.584014892578125,50.651702880859375
1700006753662135600,2.673135498046875,-100.72923278808594,4.3845367431640625,50.73759460449219
1700006753672047600,2.683047607421875,-101.2679443359375,4.554473876953125,49.962310791015625
1700006753681960700,2.692960693359375,-101.08271789550781,4.44110107421875,50.32072448730469
1700006753691872500,2.70287255859375,-101.08145141601562,4.2653350830078125,50.190460205078125
1700006753701785600,2.71278564453125,-101.30400085449219,4.7672271728515625,50.03727722167969
1700006753711698400,2.722698486328125,-101.40867614746094,4.5364837646484375,50.04032897949219
1700006753721611500,2.732611572265625,-101.19889831542969,4.53253173828125,49.62049865722656
1700006753731524600,2.742524658203125,-101.01327514648438,4.45404052734375,49.3507080078125
1700006753741436400,2.7524365234375,-101.18449401855469,4.280853271484375,49.43159484863281
1700006753751347500,2.762347412109375,-101.53941345214844,4.437225341796875,49.192474365234375
1700006753761259500,2.772259521484375,-101.59353637695312,4.4414215087890625,49.554290771484375
1700006753771172600,2.782172607421875,-101.67228698730469,4.4742584228515625,49.55046081542969
1700006753781083600,2.792083740234375,-101.77958679199219,4.580535888671875,49.276092529296875
1700006753790995700,2.80199560546875,-101.67646789550781,4.785980224609375,49.380828857421875
1700006753800906800,2.81190673828125,-101.74539184570312,4.302032470703125,49.18388366699219
1700006753810817500,2.821817626953125,-101.47267150878906,4.760772705078125,49.150054931640625
1700006753820729600,2.8317294921875,-101.70838928222656,4.9199676513671875,49.63673400878906
1700006753830640600,2.841640625,-102.12355041503906,4.9563140869140625,49.313690185546875
1700006753840551700,2.8515517578125,-102.69076538085938,4.8425140380859375,49.47584533691406
1700006753850463700,2.861463623046875,-102.63552856445312,4.8111572265625,49.598358154296875
1700006753860375600,2.87137548828125,-102.90153503417969,5.1165924072265625,49.80973815917969
1700006753870288600,2.88128857421875,-103.65019226074219,5.3034515380859375,49.863800048828125
1700006753880202500,2.891202392578125,-103.86529541015625,5.5350189208984375,49.91404724121094
1700006753890116600,2.90111669921875,-104.07411193847656,5.7312164306640625,50.26454162597656
1700006753900030700,2.91103076171875,-103.534912109375,5.6581878662109375,50.04707336425781
1700006753909943600,2.920943603515625,-103.75700378417969,5.72686767578125,49.85111999511719
1700006753919856600,2.930856689453125,-103.96687316894531,5.8582611083984375,49.978912353515625
1700006753929768400,2.9407685546875,-103.70841979980469,5.91912841796875,49.83860778808594
1700006753939681500,2.950681640625,-103.92439270019531,6.061798095703125,49.08311462402344
1700006753949594600,2.9605947265625,-103.882080078125,5.6448516845703125,49.07713317871094
1700006753959507700,2.9705078125,-103.91096496582031,5.84844970703125,48.459136962890625
1700006753969419800,2.980419677734375,-103.22018432617188,5.7333526611328125,47.8516845703125
1700006753979332600,2.99033251953125,-103.3336181640625,5.75811767578125,47.715240478515625
1700006753989246700,3.000246826171875,-103.05986022949219,5.8651275634765625,47.47589111328125
1700006753999160800,3.010160888671875,-103.10958862304688,5.5010528564453125,47.11688232421875
1700006754009073700,3.02007373046875,-103.08847045898438,5.4023590087890625,47.1558837890625
1700006754018986800,3.02998681640625,-103.49162292480469,5.350189208984375,46.600311279296875
1700006754028899600,3.039899658203125,-102.60459899902344,5.1161956787109375,46.29179382324219
1700006754038813000,3.04981298828125,-102.24017333984375,5.0984649658203125,45.73492431640625
1700006754048724700,3.059724853515625,-102.17881774902344,4.762451171875,45.2259521484375
1700006754058637800,3.069637939453125,-101.63645935058594,4.54840087890625,45.35527038574219
1700006754068551000,3.079551025390625,-102.12112426757812,4.5388641357421875,44.507659912109375
1700006754078463700,3.089463623046875,-101.71554565429688,4.4878387451171875,44.06526184082031
1700006754088377600,3.099377685546875,-101.07954406738281,4.2402801513671875,43.676025390625
1700006754098289700,3.10928955078125,-101.24244689941406,4.319610595703125,43.57977294921875
1700006754108202800,3.11920263671875,-100.49368286132812,4.31964111328125,43.548583984375
1700006754118116900,3.129116943359375,-100.47663879394531,4.1654815673828125,43.21253967285156
1700006754128030700,3.13903076171875,-100.28504943847656,4.259521484375,42.745880126953125
1700006754137944600,3.148944580078125,-100.40394592285156,3.9138031005859375,42.37443542480469
1700006754147857700,3.158857666015625,-100.58419799804688,3.789886474609375,42.168975830078125
1700006754157770800,3.168770751953125,-100.35514831542969,3.7174835205078125,42.137298583984375
1700006754167683800,3.178683837890625,-100.32180786132812,3.9854278564453125,41.74237060546875
1700006754177597000,3.188596923828125,-99.564208984375,3.9347381591796875,41.44285583496094
1700006754187508700,3.1985087890625,-100.20639038085938,3.7135772705078125,41.31199645996094
1700006754197421800,3.208421875,-100.18144226074219,3.613311767578125,41.32476806640625
1700006754207334000,3.218333984375,-100.59620666503906,3.7559051513671875,41.07786560058594
1700006754217245000,3.228244873046875,-100.822998046875,3.5882415771484375,40.867584228515625
1700006754227157000,3.238156982421875,-101.19342041015625,3.69964599609375,40.75666809082031
1700006754237069800,3.24806982421875,-101.15676879882812,3.856414794921875,40.91552734375
1700006754246980600,3.257980712890625,-101.84568786621094,3.469970703125,40.45475769042969
1700006754256892700,3.267892578125,-101.88166809082031,3.46295166015625,40.760650634765625
1700006754266804700,3.2778046875,-101.95195007324219,3.5721588134765625,40.76860046386719
1700006754276716800,3.287716796875,-102.22669982910156,3.57525634765625,40.73167419433594
1700006754286629600,3.297629638671875,-101.81306457519531,3.3162078857421875,40.833953857421875
1700006754296540700,3.307540771484375,-102.18515014648438,3.18670654296875,40.86419677734375
1700006754306452700,3.31745263671875,-101.93916320800781,3.36859130859375,41.18159484863281
1700006754316364800,3.32736474609375,-101.54208374023438,3.4038238525390625,41.23333740234375
1700006754326276900,3.33727685546875,-102.45591735839844,3.2302703857421875,41.333038330078125
1700006754336188000,3.34718798828125,-102.05430603027344,3.399810791015625,41.79975891113281
1700006754346098700,3.3570986328125,-102.10177612304688,3.54571533203125,41.687103271484375
1700006754356010800,3.3670107421875,-102.19309997558594,3.6077117919921875,42.33154296875
1700006754365921800,3.376921875,-102.55574035644531,3.4713134765625,42.027740478515625
1700006754375832800,3.386832763671875,-103.05526733398438,3.4780426025390625,42.58360290527344
1700006754385744000,3.396743896484375,-102.70906066894531,3.6542510986328125,43.15765380859375
1700006754395656000,3.406656005859375,-103.42572021484375,3.832489013671875,42.744415283203125
1700006754405566700,3.416566650390625,-103.46469116210938,3.720062255859375,43.50389099121094
1700006754415476700,3.426476806640625,-103.81529235839844,3.9464569091796875,43.86647033691406
1700006754425389800,3.436389892578125,-104.29096984863281,4.0818023681640625,44.51605224609375
1700006754435300900,3.44630078125,-104.30010986328125,4.1259918212890625,44.8116455078125
1700006754445213700,3.456213623046875,-104.74772644042969,4.22357177734375,44.96673583984375
1700006754455125800,3.466125732421875,-104.77191162109375,4.550872802734375,45.31317138671875
1700006754465038800,3.476038818359375,-105.2039794921875,4.3182830810546875,45.941070556640625
1700006754474952700,3.48595263671875,-105.37057495117188,4.56414794921875,46.423614501953125
1700006754484864800,3.49586474609375,-105.86625671386719,4.9628753662109375,46.77799987792969
1700006754494777600,3.505777587890625,-105.72140502929688,5.1383209228515625,46.69032287597656
1700006754504690700,3.515690673828125,-105.94052124023438,4.7454986572265625,47.33390808105469
1700006754514602800,3.525602783203125,-105.87744140625,4.9120025634765625,47.501953125
1700006754524515800,3.535515869140625,-105.94184875488281,4.738525390625,47.465576171875
1700006754534429700,3.5454296875,-106.1658935546875,4.96142578125,48.19403076171875
1700006754544343800,3.55534375,-106.05079650878906,4.896240234375,48.185333251953125
1700006754554258000,3.5652578125,-106.18609619140625,4.819793701171875,48.20130920410156
1700006754564171800,3.575171875,-106.25238037109375,4.527862548828125,48.26116943359375
1700006754574085600,3.585085693359375,-106.21270751953125,4.46630859375,48.24623107910156
1700006754584000000,3.595,-106.3099365234375,4.3838043212890625,48.83598327636719
1700006754593913900,3.604913818359375,-106.198974609375,4.048553466796875,48.575439453125
1700006754603827700,3.61482763671875,-105.76252746582031,3.9682159423828125,48.79756164550781
1700006754613740800,3.62474072265625,-106.31968688964844,3.855224609375,48.875244140625
1700006754623653600,3.634653564453125,-105.8992919921875,3.9015045166015625,48.67921447753906
1700006754633565700,3.644565673828125,-106.21083068847656,3.945526123046875,48.54339599609375
1700006754643479800,3.654479736328125,-106.39788818359375,3.7796630859375,49.01017761230469
1700006754653393000,3.664392822265625,-106.62962341308594,3.0554656982421875,48.973876953125
1700006754663306800,3.674306640625,-106.12599182128906,2.984039306640625,49.377166748046875
1700006754673219600,3.684219482421875,-106.76010131835938,2.9022979736328125,49.406951904296875
1700006754683134000,3.694134033203125,-106.55044555664062,2.9011383056640625,49.36766052246094
1700006754693046800,3.704046875,-106.77294921875,2.4813079833984375,49.49909973144531
1700006754702959900,3.7139599609375,-107.03765869140625,2.3167724609375,49.97100830078125
1700006754712872700,3.723872802734375,-107.27735900878906,2.5428619384765625,50.160675048828125
1700006754722786600,3.73378662109375,-106.55126953125,2.569488525390625,50.30682373046875
1700006754732700000,3.743699951171875,-106.59138488769531,2.31268310546875,50.37409973144531
1700006754742611700,3.75361181640625,-106.72406005859375,2.2148895263671875,50.60215759277344
1700006754752524800,3.76352490234375,-106.98471069335938,2.1562042236328125,51.008209228515625
1700006754762438000,3.77343798828125,-107.03672790527344,2.405120849609375,51.05583190917969
1700006754772350700,3.783350830078125,-107.09600830078125,2.0475616455078125,51.279296875
1700006754782263800,3.793263916015625,-107.37745666503906,2.436614990234375,51.37754821777344
1700006754792177700,3.803177734375,-107.44569396972656,2.4200897216796875,51.42704772949219
1700006754802091800,3.813091796875,-108.0220947265625,2.4676361083984375,51.234710693359375
1700006754812004900,3.8230048828125,-107.36430358886719,2.4571533203125,51.348175048828125
1700006754821917700,3.832917724609375,-107.461669921875,2.3774871826171875,51.418212890625
1700006754831830800,3.842830810546875,-107.89961242675781,2.3838653564453125,51.11430358886719
1700006754841744600,3.85274462890625,-107.44435119628906,2.19476318359375,51.41581726074219
1700006754851658000,3.862657958984375,-107.16622924804688,2.2983856201171875,51.24092102050781
1700006754861569800,3.87256982421875,-107.68255615234375,2.5149993896484375,51.22953796386719
1700006754871483000,3.88248291015625,-107.82730102539062,2.5470123291015625,51.48480224609375
1700006754881396700,3.892396728515625,-107.13507080078125,2.401947021484375,51.09873962402344
1700006754891310600,3.902310546875,-107.47183227539062,2.5625,51.2120361328125
1700006754901225000,3.912224853515625,-106.97377014160156,2.508819580078125,51.03520202636719
1700006754911139800,3.922139892578125,-107.00485229492188,2.0387725830078125,50.823577880859375
1700006754921053700,3.9320537109375,-106.42530822753906,2.55902099609375,50.62419128417969
1700006754930969600,3.941969482421875,-107.21212768554688,2.4600067138671875,50.349456787109375
1700006754940882700,3.951882568359375,-106.60670471191406,2.274383544921875,50.19712829589844
1700006754950795800,3.961795654296875,-106.74838256835938,2.190948486328125,49.762908935546875
1700006754960710000,3.9717099609375,-107.07748413085938,2.2060089111328125,49.79469299316406
1700006754970624500,3.98162451171875,-106.65142822265625,2.3837738037109375,49.67193603515625
1700006754980538400,3.991538330078125,-107.0772705078125,2.323486328125,49.33421325683594
1700006754990451500,4.001451416015625,-106.51820373535156,2.5904083251953125,49.3135986328125
1700006755000365600,4.011365478515625,-106.35777282714844,2.2961883544921875,49.38633728027344
1700006755010279400,4.021279541015625,-106.52902221679688,2.07684326171875,49.239227294921875
1700006755020192500,4.031192626953125,-106.72506713867188,2.3496551513671875,49.05900573730469
1700006755030106600,4.041106689453125,-106.36422729492188,2.7285308837890625,48.971160888671875
1700006755040019500,4.05101953125,-106.34721374511719,2.7615509033203125,49.37394714355469
1700006755049931500,4.060931640625,-106.09405517578125,3.025421142578125,49.32649230957031
1700006755059845400,4.070845458984375,-106.47158813476562,2.9927520751953125,48.81196594238281
1700006755069758500,4.080758544921875,-107.15318298339844,3.119354248046875,49.17033386230469
1700006755079670500,4.09067041015625,-106.56779479980469,3.0598297119140625,48.88243103027344
1700006755089583400,4.100583251953125,-106.71714782714844,3.32977294921875,49.00498962402344
1700006755099497500,4.11049755859375,-106.98591613769531,3.309326171875,48.694061279296875
1700006755109410600,4.12041064453125,-106.42019653320312,3.857330322265625,49.02717590332031
1700006755119321600,4.130321533203125,-106.71354675292969,3.9990997314453125,49.06410217285156
1700006755129234400,4.140234375,-106.78530883789062,4.130401611328125,48.60774230957031
1700006755139147500,4.1501474609375,-106.72604370117188,4.197418212890625,48.809844970703125
1700006755149059600,4.1600595703125,-106.10038757324219,4.4791717529296875,48.84712219238281
1700006755158972400,4.169972412109375,-106.260009765625,4.2764434814453125,48.77003479003906
1700006755168886500,4.179886474609375,-106.23606872558594,4.230865478515625,48.13050842285156
1700006755178800600,4.189800537109375,-105.48262023925781,4.407745361328125,48.03840637207031
1700006755188714500,4.199714599609375,-106.2171630859375,4.45086669921875,47.82218933105469
1700006755198628400,4.20962841796875,-105.72222900390625,4.593170166015625,47.44798278808594
1700006755208543500,4.21954345703125,-105.22535705566406,4.47088623046875,47.54252624511719
1700006755218458400,4.229458251953125,-104.345458984375,4.3357696533203125,47.17041015625
1700006755228372500,4.23937255859375,-103.69795227050781,4.54449462890625,46.78520202636719
1700006755238285600,4.24928564453125,-103.643798828125,4.683135986328125,46.26609802246094
1700006755248198400,4.259198486328125,-102.99615478515625,4.576934814453125,45.40873718261719
1700006755258111500,4.269111572265625,-103.33729553222656,4.29345703125,45.444091796875
1700006755268024300,4.2790244140625,-103.05097961425781,4.56982421875,45.34062194824219
1700006755277938400,4.2889384765625,-103.51948547363281,4.553558349609375,44.81727600097656
1700006755287853600,4.298853515625,-103.28030395507812,4.3020782470703125,44.6507568359375
1700006755297767400,4.308767333984375,-102.20497131347656,4.3145294189453125,44.04351806640625
1700006755307681500,4.318681640625,-102.410400390625,4.1894683837890625,43.64015197753906
1700006755317595400,4.328595458984375,-102.17996215820312,4.1548309326171875,43.70088195800781
1700006755327509500,4.338509521484375,-102.10745239257812,4.00927734375,43.155059814453125
1700006755337422300,4.34842236328125,-101.21701049804688,4.12274169921875,42.744293212890625
1700006755347335700,4.358335693359375,-101.51518249511719,4.1512451171875,42.629608154296875
1700006755357249500,4.36824951171875,-101.4310302734375,4.221466064453125,42.232452392578125
1700006755367163400,4.378163330078125,-100.98114013671875,4.204559326171875,42.379302978515625
1700006755377078500,4.38807861328125,-101.23875427246094,3.9815826416015625,41.913482666015625
1700006755386991600,4.39799169921875,-101.34036254882812,4.1146087646484375,41.817108154296875
1700006755396905500,4.407905517578125,-101.19662475585938,4.153717041015625,41.59352111816406
1700006755406819600,4.417819580078125,-101.18461608886719,3.97027587890625,41.43531799316406
1700006755416734500,4.427734375,-101.46867370605469,3.8463592529296875,41.21527099609375
1700006755426648300,4.4376484375,-101.57176208496094,3.8011932373046875,41.307220458984375
1700006755436562400,4.4475625,-101.61882019042969,3.810302734375,40.959686279296875
1700006755446475500,4.4574755859375,-101.66093444824219,3.595489501953125,40.71495056152344
1700006755456389400,4.467389404296875,-102.31820678710938,3.7992401123046875,40.61259460449219
1700006755466303500,4.477303466796875,-102.06814575195312,3.4905242919921875,40.5802001953125
1700006755476216600,4.487216552734375,-102.01846313476562,3.4161224365234375,40.520416259765625
1700006755486129400,4.49712939453125,-102.62855529785156,3.4142913818359375,40.26789855957031
1700006755496043500,4.50704345703125,-102.52388000488281,3.357147216796875,40.113433837890625
1700006755505956400,4.516956298828125,-102.82858276367188,3.2605743408203125,40.011810302734375
1700006755515869400,4.526869384765625,-103.28915405273438,3.077301025390625,40.18408203125
1700006755525784600,4.53678466796875,-103.30471801757812,3.3059539794921875,39.75738525390625
1700006755535698400,4.546698486328125,-103.51010131835938,3.1193084716796875,39.665802001953125
1700006755545613600,4.556613525390625,-103.54345703125,3.46478271484375,40.05375671386719
1700006755555526400,4.5665263671875,-104.00537109375,3.4304962158203125,39.89225769042969
1700006755565439500,4.576439453125,-104.04324340820312,3.43865966796875,39.97593688964844
1700006755575353300,4.586353271484375,-104.046630859375,3.7378997802734375,39.737945556640625
1700006755585266700,4.5962666015625,-104.30398559570312,3.22784423828125,39.7740478515625
1700006755595179500,4.606179443359375,-104.59721374511719,3.43096923828125,39.7440185546875
1700006755605093400,4.61609326171875,-104.79684448242188,3.353057861328125,39.721466064453125
1700006755615005400,4.62600537109375,-104.81831359863281,3.207489013671875,39.79400634765625
1700006755624919300,4.635919189453125,-105.571533203125,3.1317901611328125,40.03514099121094
1700006755634832400,4.645832275390625,-105.43972778320312,3.5699920654296875,40.09944152832031
1700006755644746500,4.65574658203125,-106.05268859863281,3.36212158203125,40.14796447753906
1700006755654660400,4.665660400390625,-106.18820190429688,3.5821533203125,40.03279113769531
1700006755664574500,4.675574462890625,-107.05111694335938,3.974395751953125,40.544952392578125
1700006755674488600,4.685488525390625,-107.48420715332031,4.0213165283203125,41.04566955566406
1700006755684401400,4.6954013671875,-107.47450256347656,3.8849029541015625,41.121734619140625
1700006755694316300,4.70531640625,-107.57557678222656,4.057342529296875,41.52790832519531
1700006755704230700,4.715230712890625,-108.35040283203125,4.176544189453125,41.94157409667969
1700006755714144500,4.72514453125,-108.83128356933594,4.326568603515625,42.19926452636719
1700006755724057300,4.735057373046875,-109.44699096679688,4.688995361328125,42.30804443359375
1700006755733971500,4.744971435546875,-109.31849670410156,4.636260986328125,42.53105163574219
1700006755743885600,4.754885498046875,-109.3846435546875,4.7971954345703125,42.60600280761719
1700006755753798400,4.76479833984375,-110.03622436523438,4.4143829345703125,43.15199279785156
1700006755763711500,4.77471142578125,-109.65887451171875,4.3608551025390625,43.13641357421875
1700006755773623600,4.78462353515625,-109.88536071777344,4.3334197998046875,43.27593994140625
1700006755783535400,4.794535400390625,-109.35400390625,4.6721343994140625,43.88285827636719
1700006755793448400,4.804448486328125,-109.28593444824219,4.3190765380859375,43.890838623046875
1700006755803361500,4.814361572265625,-109.03025817871094,4.1650238037109375,44.099639892578125
1700006755813275600,4.824275634765625,-108.7882080078125,3.8176727294921875,44.312255859375
1700006755823187700,4.834187744140625,-108.32839965820312,4.077056884765625,44.61442565917969
1700006755833101600,4.8441015625,-108.51348876953125,3.7998504638671875,44.68812561035156
1700006755843014400,4.854014404296875,-108.26971435546875,3.7779693603515625,45.361572265625
1700006755852927500,4.863927490234375,-108.20585632324219,3.2102508544921875,45.356292724609375
1700006755862840300,4.87384033203125,-108.06510925292969,3.5172119140625,45.91680908203125
1700006755872753400,4.88375341796875,-108.72116088867188,3.3622283935546875,46.14817810058594
1700006755882666500,4.89366650390625,-108.27734375,3.3106842041015625,46.36949157714844
1700006755892581400,4.903581298828125,-108.12942504882812,3.2854766845703125,46.80210876464844
1700006755902494500,4.913494384765625,-108.60147094726562,3.090972900390625,47.309600830078125
1700006755912407300,4.9234072265625,-108.50021362304688,2.9590606689453125,47.8038330078125
1700006755922319400,4.9333193359375,-108.67391967773438,3.0232696533203125,47.78717041015625
1700006755932232400,4.943232421875,-108.55146789550781,2.6177520751953125,48.029937744140625
1700006755942146600,4.953146484375,-108.68426513671875,2.844207763671875,48.402435302734375
1700006755952060400,4.963060302734375,-109.05670166015625,2.483001708984375,48.25209045410156
1700006755961972500,4.972972412109375,-109.05935668945312,2.7898712158203125,48.678802490234375
1700006755971885600,4.982885498046875,-108.98225402832031,2.3512725830078125,48.51991271972656
1700006755981800000,4.992800048828125,-109.14305114746094,2.4986419677734375,48.607696533203125
1700006755991713800,5.0027138671875,-109.24516296386719,2.21282958984375,48.6300048828125
1700006756001627600,5.012627685546875,-108.85040283203125,2.29876708984375,48.87615966796875
1700006756011540700,5.022540771484375,-108.86233520507812,2.264312744140625,49.277679443359375
1700006756021454800,5.032454833984375,-108.93951416015625,2.1127471923828125,49.026885986328125
1700006756031367000,5.042366943359375,-108.59780883789062,2.296478271484375,48.69184875488281
1700006756041278700,5.05227880859375,-108.98368835449219,2.2305450439453125,48.43115234375
1700006756051191800,5.06219189453125,-108.93550109863281,2.1886138916015625,48.29496765136719
1700006756061105000,5.07210498046875,-108.86628723144531,2.357940673828125,48.16868591308594
1700006756071018800,5.082018798828125,-108.86868286132812,2.0758056640625,48.1959228515625
1700006756080931600,5.091931640625,-108.54412841796875,1.9516754150390625,47.899322509765625
1700006756090844700,5.1018447265625,-108.20355224609375,2.132720947265625,47.9884033203125
1700006756100757800,5.1117578125,-108.37672424316406,1.9484405517578125,47.39945983886719
1700006756110669600,5.121669677734375,-108.24014282226562,1.646820068359375,47.50617980957031
1700006756120583000,5.1315830078125,-108.45207214355469,2.1790924072265625,47.356536865234375
1700006756130495700,5.141495849609375,-108.18745422363281,1.8155670166015625,46.91717529296875
1700006756140407800,5.15140771484375,-108.60902404785156,1.57843017578125,46.64256286621094
1700006756150319900,5.16131982421875,-107.89898681640625,1.7043609619140625,46.21990966796875
1700006756160230700,5.171230712890625,-107.9825439453125,1.8372802734375,46.77519226074219
1700006756170143700,5.181143798828125,-108.23542785644531,1.5638427734375,46.57603454589844
1700006756180056800,5.191056884765625,-107.58009338378906,1.70159912109375,46.17449951171875
1700006756189969700,5.2009697265625,-108.79313659667969,2.062713623046875,45.97955322265625
1700006756199881000,5.210880859375,-108.47950744628906,1.9531402587890625,45.903594970703125
1700006756209793800,5.220793701171875,-107.95220947265625,2.1063232421875,45.879119873046875
1700006756219705900,5.230705810546875,-108.15875244140625,2.1036529541015625,45.85621643066406
1700006756229618000,5.240617919921875,-107.64041137695312,2.2161407470703125,45.85066223144531
1700006756239529700,5.25052978515625,-108.13853454589844,2.184112548828125,45.71900939941406
1700006756249442800,5.26044287109375,-108.02890014648438,2.2400970458984375,45.88348388671875
1700006756259356000,5.27035595703125,-107.88922119140625,2.1358795166015625,45.66584777832031
1700006756269268700,5.280268798828125,-107.54351806640625,2.726165771484375,45.807586669921875
1700006756279182600,5.2901826171875,-107.371337890625,2.558929443359375,45.502349853515625
1700006756289094700,5.3000947265625,-107.32572937011719,2.728240966796875,45.528656005859375
1700006756299007700,5.3100078125,-107.22734069824219,2.65533447265625,45.86567687988281
1700006756308919600,5.31991943359375,-107.22352600097656,3.0408935546875,45.51478576660156
1700006756318832600,5.32983251953125,-106.82907104492188,3.1951904296875,45.606414794921875
1700006756328744700,5.33974462890625,-106.89576721191406,3.2918701171875,45.827606201171875
1700006756338655700,5.34965576171875,-106.85028076171875,3.3186798095703125,45.76628112792969
1700006756348566800,5.35956689453125,-106.29981994628906,3.5125579833984375,45.456085205078125
1700006756358478800,5.369478759765625,-105.39566040039062,3.4584808349609375,45.5521240234375
1700006756368389600,5.3793896484375,-105.76791381835938,3.7716827392578125,45.09123229980469
1700006756378302700,5.389302734375,-105.32098388671875,3.738128662109375,45.18980407714844
1700006756388215800,5.3992158203125,-105.19233703613281,3.9091644287109375,44.965057373046875
1700006756398127900,5.4091279296875,-104.22174072265625,3.6951751708984375,44.704254150390625
1700006756408040000,5.4190400390625,-104.32864379882812,3.5678863525390625,44.13514709472656
1700006756417951700,5.42895166015625,-103.99549865722656,3.9784698486328125,44.04339599609375
1700006756427862500,5.438862548828125,-103.75259399414062,4.1878509521484375,43.597686767578125
1700006756437775600,5.448775634765625,-103.15972900390625,3.9011077880859375,43.17216491699219
1700006756447687700,5.458687744140625,-102.39822387695312,3.898651123046875,42.76966857910156
1700006756457599700,5.468599853515625,-101.55728149414062,3.578765869140625,42.1751708984375
1700006756467511600,5.478511474609375,-101.33778381347656,3.952239990234375,41.89544677734375
1700006756477423600,5.488423583984375,-100.93794250488281,3.7014312744140625,41.45378112792969
1700006756487335700,5.498335693359375,-100.49996948242188,3.8976593017578125,40.99418640136719
1700006756497247700,5.508247802734375,-100.56620788574219,3.9656829833984375,40.44136047363281
1700006756507159800,5.518159912109375,-99.91670227050781,3.9765777587890625,39.84800720214844
1700006756517071600,5.528071533203125,-99.80854797363281,3.6103973388671875,40.00822448730469
1700006756526985700,5.53798583984375,-99.51010131835938,3.5974578857421875,39.467132568359375
1700006756536898600,5.547898681640625,-98.61500549316406,3.8447113037109375,39.0784912109375
1700006756546812000,5.55781201171875,-98.53994750976562,3.6041107177734375,38.24681091308594
1700006756556724700,5.567724853515625,-98.24665832519531,3.756622314453125,38.739837646484375
1700006756566637800,5.577637939453125,-97.53715515136719,3.434783935546875,38.439910888671875
1700006756576550700,5.587550537109375,-96.8662109375,3.385955810546875,37.88377380371094
1700006756586463700,5.597463623046875,-96.818603515625,3.189239501953125,37.81571960449219
1700006756596375800,5.607375732421875,-96.10208129882812,3.164825439453125,37.91487121582031
1700006756606287600,5.61728759765625,-95.80113220214844,3.25958251953125,37.93058776855469
1700006756616198700,5.62719873046875,-96.07371520996094,2.776763916015625,37.58616638183594
1700006756626111700,5.63711181640625,-95.79417419433594,3.0566558837890625,37.733856201171875
1700006756636024800,5.64702490234375,-95.87098693847656,2.9423370361328125,37.81929016113281
1700006756645939700,5.656939697265625,-96.34658813476562,3.01922607421875,37.8828125
1700006756655853800,5.666853759765625,-96.3443603515625,2.9967041015625,37.60481262207031
1700006756665766000,5.676765869140625,-96.27973937988281,2.7655029296875,37.492462158203125
1700006756675677700,5.686677734375,-96.19754028320312,2.9067535400390625,37.53840637207031
1700006756685590800,5.6965908203125,-96.43095397949219,2.5386962890625,37.6927490234375
1700006756695502800,5.7065029296875,-96.50848388671875,2.5570831298828125,37.80128479003906
1700006756705414700,5.71641455078125,-96.69424438476562,2.29144287109375,37.84611511230469
1700006756715326700,5.72632666015625,-96.49777221679688,2.1303558349609375,37.7890625
1700006756725237500,5.736237548828125,-96.06239318847656,2.298126220703125,37.74873352050781
1700006756735149600,5.746149658203125,-96.55226135253906,2.31683349609375,37.62696838378906
1700006756745063700,5.756063720703125,-96.54414367675781,2.2658538818359375,37.58160400390625
1700006756754976800,5.765976806640625,-96.29754638671875,2.0666656494140625,37.22032165527344
1700006756764890600,5.775890625,-95.77287292480469,2.2031097412109375,37.565338134765625
1700006756774803700,5.7858037109375,-96.041748046875,2.17755126953125,37.3917236328125
1700006756784716500,5.795716552734375,-96.38381958007812,2.3790283203125,37.69816589355469
1700006756794628600,5.805628662109375,-96.51026916503906,2.058746337890625,37.37574768066406
1700006756804542000,5.8155419921875,-96.70124816894531,2.264068603515625,37.35307312011719
1700006756814454800,5.825454833984375,-96.16072082519531,2.1428070068359375,37.65892028808594
1700006756824365600,5.835365478515625,-96.20457458496094,2.3819427490234375,37.53436279296875
1700006756834277600,5.845277587890625,-96.18885803222656,2.1352996826171875,37.58674621582031
1700006756844190700,5.855190673828125,-96.32588195800781,2.260589599609375,37.7291259765625
1700006756854104800,5.865104736328125,-96.70233154296875,2.3981170654296875,38.08308410644531
1700006756864017000,5.875016845703125,-96.43107604980469,2.533447265625,37.753082275390625
1700006756873929700,5.8849296875,-95.69963073730469,2.5697479248046875,38.032257080078125
1700006756883841800,5.894841796875,-96.18595886230469,2.425537109375,38.3017578125
1700006756893755600,5.904755615234375,-96.23748779296875,2.87762451171875,38.15266418457031
1700006756903669800,5.914669677734375,-96.10922241210938,2.8009490966796875,38.17584228515625
1700006756913583900,5.924583984375,-95.75004577636719,2.781768798828125,38.26362609863281
1700006756923497700,5.934497802734375,-95.76637268066406,3.360565185546875,38.72230529785156
1700006756933411800,5.944411865234375,-95.94471740722656,3.1777496337890625,38.35981750488281
1700006756943325700,5.95432568359375,-95.60595703125,3.3585205078125,38.85516357421875
1700006756953239600,5.964239501953125,-95.83358764648438,3.573089599609375,38.7569580078125
1700006756963154700,5.97415478515625,-95.65036010742188,3.2628173828125,38.34181213378906
1700006756973066500,5.98406640625,-95.51799011230469,3.5081634521484375,38.96635437011719
1700006756982981600,5.993981689453125,-95.47000122070312,3.447265625,38.73228454589844
1700006756992894700,6.003894775390625,-95.88191223144531,3.5209197998046875,38.99615478515625
1700006757002807600,6.0138076171875,-95.61628723144531,3.6915283203125,38.80421447753906
1700006757012721700,6.0237216796875,-95.86470031738281,3.7082061767578125,39.10530090332031
1700006757022635800,6.0336357421875,-95.6290283203125,3.76873779296875,39.0360107421875
1700006757032549600,6.043549560546875,-95.44178771972656,3.664581298828125,38.82991027832031
1700006757042463500,6.05346337890625,-95.54855346679688,3.9378662109375,38.86883544921875
1700006757052377600,6.063377685546875,-94.85250854492188,3.701019287109375,39.174102783203125
1700006757062291700,6.073291748046875,-94.61643981933594,3.87261962890625,39.08872985839844
1700006757072204500,6.08320458984375,-95.0218505859375,4.116668701171875,39.07598876953125
1700006757082118700,6.09311865234375,-94.12229919433594,3.861602783203125,38.95005798339844
1700006757092031700,6.10303173828125,-94.24232482910156,4.1559295654296875,39.34381103515625
1700006757101943800,6.11294384765625,-94.04949951171875,3.944976806640625,39.172760009765625
1700006757111856600,6.122856689453125,-94.00311279296875,3.8691864013671875,39.274078369140625
1700006757121769700,6.132769775390625,-93.98593139648438,3.77197265625,39.3763427734375
1700006757131682600,6.1426826171875,-93.6578369140625,3.7297515869140625,39.50090026855469
1700006757141594600,6.1525947265625,-92.93502807617188,3.7302398681640625,39.49713134765625
1700006757151508500,6.162508544921875,-92.98115539550781,3.650177001953125,39.397369384765625
1700006757161420500,6.172420654296875,-92.29191589355469,3.7475433349609375,39.34965515136719
1700006757171333600,6.182333740234375,-92.12692260742188,3.430450439453125,39.73150634765625
1700006757181246700,6.192246826171875,-91.9876708984375,3.3407440185546875,40.016754150390625
1700006757191160600,6.20216064453125,-92.21678161621094,3.30047607421875,40.30009460449219
1700006757201074700,6.21207470703125,-91.87754821777344,2.9974822998046875,40.066650390625
1700006757210989800,6.22198974609375,-91.72389221191406,3.0571441650390625,39.95890808105469
1700006757220903700,6.231903564453125,-92.19837951660156,3.21466064453125,40.238250732421875
1700006757230817500,6.241817626953125,-91.651123046875,3.0024566650390625,40.13514709472656
1700006757240730600,6.251730712890625,-91.99119567871094,2.845001220703125,40.18266296386719
1700006757250643700,6.261643798828125,-92.25405883789062,2.9788665771484375,40.28932189941406
1700006757260556800,6.271556884765625,-92.50904846191406,2.7282257080078125,40.231475830078125
1700006757270469600,6.2814697265625,-92.24850463867188,2.5399017333984375,40.37394714355469
1700006757280383500,6.291383544921875,-92.71926879882812,2.360260009765625,39.93455505371094
1700006757290296600,6.301296630859375,-92.84832763671875,2.2643280029296875,40.05586242675781
1700006757300210700,6.311210693359375,-93.10569763183594,2.2342681884765625,40.01080322265625
1700006757310124500,6.32112451171875,-93.41087341308594,2.19378662109375,39.93736267089844
1700006757320038700,6.33103857421875,-93.20208740234375,2.1400604248046875,39.842193603515625
1700006757329951500,6.340951416015625,-93.04173278808594,2.070648193359375,39.998138427734375
1700006757339865600,6.350865478515625,-93.44624328613281,2.34954833984375,39.334075927734375
1700006757349778700,6.36077880859375,-93.97154235839844,2.0942535400390625,39.72691345214844
1700006757359691500,6.37069140625,-94.04042053222656,2.1922149658203125,39.35504150390625
1700006757369605600,6.380605712890625,-94.20866394042969,1.9858856201171875,39.475189208984375
1700006757379518700,6.390518798828125,-94.31282043457031,2.1448822021484375,39.161102294921875
1700006757389432600,6.4004326171875,-94.7691650390625,1.7495269775390625,38.654205322265625
1700006757399347500,6.410347412109375,-94.80201721191406,1.8521881103515625,38.60162353515625
1700006757409262600,6.4202626953125,-95.10368347167969,1.8157806396484375,38.7352294921875
1700006757419176700,6.4301767578125,-94.885009765625,1.8305206298828125,38.52787780761719
1700006757429090800,6.4400908203125,-95.07891845703125,1.4710540771484375,38.3853759765625
1700006757439004700,6.450004638671875,-95.07353210449219,1.6837615966796875,37.98736572265625
1700006757448917500,6.45991748046875,-95.65512084960938,1.6646881103515625,38.1304931640625
1700006757458829600,6.46982958984375,-94.89208984375,1.780517578125,38.122589111328125
1700006757468742700,6.47974267578125,-95.85137939453125,1.7879791259765625,38.03038024902344
1700006757478653700,6.48965380859375,-95.55815124511719,1.8749542236328125,38.004608154296875
1700006757488566500,6.49956640625,-96.11605834960938,2.0204620361328125,37.44374084472656
1700006757498477800,6.509477783203125,-94.93911743164062,1.9941253662109375,37.688323974609375
1700006757508389600,6.5193896484375,-96.14031982421875,1.893829345703125,37.615966796875
1700006757518302700,6.529302734375,-96.33323669433594,2.13714599609375,37.495086669921875
1700006757528214800,6.53921484375,-96.30645751953125,2.1327056884765625,37.04240417480469
1700006757538125800,6.549125732421875,-96.76338195800781,1.89044189453125,37.18479919433594
1700006757548037600,6.55903759765625,-96.68339538574219,2.279266357421875,36.947265625
1700006757557950700,6.56895068359375,-96.32124328613281,2.3949737548828125,37.155517578125
1700006757567863800,6.57886376953125,-97.03111267089844,2.3648681640625,36.74674987792969
1700006757577776600,6.588776611328125,-96.90971374511719,2.5436553955078125,36.92387390136719
1700006757587689700,6.598689697265625,-97.03141784667969,2.4694061279296875,36.81462097167969
1700006757597602600,6.6086025390625,-97.15007019042969,2.79095458984375,36.72813415527344
1700006757607514600,6.6185146484375,-97.60926818847656,3.05169677734375,37.147796630859375
1700006757617426700,6.6284267578125,-97.607421875,3.3307952880859375,36.73429870605469
1700006757627339500,6.638339599609375,-97.66958618164062,3.1609649658203125,36.444549560546875
1700006757637251600,6.64825146484375,-97.8297119140625,3.4311065673828125,36.748931884765625
1700006757647164700,6.65816455078125,-97.64811706542969,3.4001007080078125,36.549072265625
1700006757657078800,6.668078857421875,-97.55245971679688,3.7533111572265625,36.50794982910156
1700006757666992600,6.67799267578125,-98.29876708984375,3.609466552734375,36.166259765625
1700006757676905700,6.68790576171875,-97.98579406738281,3.6964874267578125,36.08677673339844
1700006757686818600,6.697818603515625,-98.40989685058594,3.8768157958984375,35.88053894042969
1700006757696731600,6.707731689453125,-98.17277526855469,3.529754638671875,35.378173828125
1700006757706645800,6.717645751953125,-98.20323181152344,3.855926513671875,35.35450744628906
1700006757716559600,6.7275595703125,-97.92610168457031,3.53912353515625,34.65959167480469
1700006757726473500,6.737473388671875,-98.03074645996094,3.8319244384765625,34.238616943359375
1700006757736385500,6.747385498046875,-98.00674438476562,4.050445556640625,34.247283935546875
1700006757746298600,6.757298583984375,-97.77862548828125,3.8065948486328125,33.64878845214844
1700006757756210700,6.767210693359375,-97.9149169921875,4.0112762451171875,33.43798828125
1700006757766122500,6.77712255859375,-97.40827941894531,4.066619873046875,33.17668151855469
1700006757776034600,6.78703466796875,-97.68017578125,4.0466766357421875,33.02586364746094
1700006757785947600,6.79694775390625,-97.61988830566406,3.993621826171875,32.85060119628906
1700006757795859500,6.806859375,-97.61410522460938,4.142120361328125,32.40806579589844
1700006757805771500,6.816771484375,-97.59637451171875,4.1647186279296875,32.22221374511719
1700006757815683600,6.82668359375,-96.97456359863281,4.315399169921875,31.811920166015625
1700006757825596700,6.8365966796875,-97.59785461425781,4.3238372802734375,31.628143310546875
1700006757835509500,6.846509521484375,-96.99940490722656,4.6077728271484375,31.261871337890625
1700006757845423600,6.856423583984375,-97.2679443359375,4.4217376708984375,30.591995239257812
1700006757855336700,6.866336669921875,-96.79106140136719,4.7490234375,30.710983276367188
1700006757865248800,6.876248779296875,-96.09092712402344,4.61029052734375,30.562271118164062
1700006757875161600,6.88616162109375,-96.33944702148438,4.60186767578125,30.6068115234375
1700006757885074700,6.89607470703125,-95.81773376464844,4.4919891357421875,30.283203125
1700006757894988500,6.905988525390625,-95.9029541015625,4.619171142578125,30.1165771484375
1700006757904902700,6.915902587890625,-95.59588623046875,4.487060546875,29.962753295898438
1700006757914817500,6.925817626953125,-95.28369140625,4.7030181884765625,29.880020141601562
1700006757924731600,6.935731689453125,-95.40800476074219,4.802337646484375,29.367141723632812
1700006757934645800,6.945645751953125,-95.06338500976562,4.53277587890625,29.615646362304688
1700006757944559600,6.9555595703125,-95.55168151855469,4.6928253173828125,29.316192626953125
1700006757954473700,6.9654736328125,-95.30265808105469,4.81085205078125,29.779922485351562
1700006757964387600,6.9753876953125,-95.38609313964844,4.7574462890625,29.112442016601562
1700006757974302700,6.985302734375,-95.93321228027344,4.82843017578125,29.12054443359375
1700006757984216600,6.995216552734375,-95.69462585449219,4.7161712646484375,29.356689453125
1700006757994129700,7.005129638671875,-96.41676330566406,4.738128662109375,29.17242431640625
1700006758004042800,7.015042724609375,-95.80708312988281,4.5174713134765625,29.206695556640625
1700006758013954600,7.02495458984375,-95.82951354980469,4.3121795654296875,29.018173217773438
1700006758023867600,7.03486767578125,-96.50556945800781,4.360595703125,28.916229248046875
1700006758033779700,7.04477978515625,-96.21067810058594,4.4475860595703125,28.88323974609375
1700006758043691500,7.05469140625,-96.3475341796875,4.444580078125,28.506561279296875
1700006758053603600,7.064603515625,-95.86946105957031,4.5058746337890625,28.372360229492188
1700006758063516700,7.0745166015625,-96.24229431152344,4.5886688232421875,28.690948486328125
1700006758073428700,7.0844287109375,-96.137451171875,4.391326904296875,28.762542724609375
1700006758083340500,7.094340576171875,-96.37825012207031,4.513885498046875,28.44036865234375
1700006758093253600,7.104253662109375,-96.686279296875,4.602752685546875,28.787002563476562
1700006758103166700,7.114166748046875,-96.3641357421875,4.5724639892578125,28.350341796875
1700006758113079800,7.124079833984375,-96.84707641601562,4.33892822265625,28.455596923828125
1700006758122992600,7.13399267578125,-96.22384643554688,4.2738494873046875,28.517547607421875
1700006758132905700,7.14390576171875,-97.099609375,4.37469482421875,28.406097412109375
1700006758142817800,7.15381787109375,-97.55485534667969,4.581756591796875,28.752670288085938
1700006758152730600,7.163730712890625,-96.94752502441406,4.484222412109375,28.584487915039062
1700006758162643700,7.173643798828125,-97.24540710449219,4.6159820556640625,28.679306030273438
1700006758172557800,7.183557861328125,-97.46932983398438,4.44091796875,29.19366455078125
1700006758182471700,7.1934716796875,-97.54049682617188,4.504180908203125,29.0419921875
1700006758192385800,7.2033857421875,-97.9322509765625,4.455596923828125,28.831314086914062
1700006758202298600,7.213298583984375,-97.39724731445312,4.1109619140625,28.993072509765625
1700006758212211700,7.223211669921875,-98.59971618652344,4.28009033203125,29.338302612304688
1700006758222125800,7.233125732421875,-98.85337829589844,4.383880615234375,29.376663208007812
1700006758232039700,7.243039794921875,-99.00628662109375,4.3685150146484375,29.66973876953125
1700006758241953500,7.25295361328125,-98.72557067871094,4.46405029296875,29.6781005859375
1700006758251867600,7.26286767578125,-99.74269104003906,4.610809326171875,29.702178955078125
1700006758261781800,7.27278173828125,-99.66806030273438,4.6121978759765625,29.875
1700006758271695600,7.282695556640625,-99.70291137695312,4.5061187744140625,29.807220458984375
1700006758281610800,7.29261083984375,-99.34201049804688,4.7114715576171875,29.996444702148438
1700006758291526000,7.30252587890625,-100.01553344726562,4.419647216796875,30.146575927734375
1700006758301438700,7.312438720703125,-99.74147033691406,4.681640625,30.410598754882812
1700006758311350800,7.322350830078125,-99.99113464355469,4.7141876220703125,30.408370971679688
1700006758321264600,7.3322646484375,-100.02027893066406,4.7052459716796875,30.211151123046875
1700006758331178800,7.3421787109375,-99.95294189453125,4.3758544921875,30.373001098632812
1700006758341092900,7.3520927734375,-99.46939086914062,4.3657989501953125,30.738845825195312
1700006758351005700,7.362005615234375,-99.37841796875,4.6178436279296875,30.748123168945312
1700006758360919800,7.371919921875,-99.2855224609375,4.46923828125,30.72747802734375
1700006758370832600,7.38183251953125,-98.70437622070312,4.34820556640625,30.97601318359375
1700006758380745700,7.391745849609375,-98.66474914550781,4.5949554443359375,31.145889282226562
1700006758390659800,7.401659912109375,-98.730712890625,4.3214874267578125,31.257156372070312
1700006758400572700,7.41157275390625,-98.45893859863281,4.453765869140625,31.248245239257812
1700006758410485800,7.42148583984375,-98.25469970703125,4.4694366455078125,31.679046630859375
1700006758420398600,7.431398681640625,-98.15322875976562,4.2395782470703125,31.536941528320312
1700006758430312700,7.441312744140625,-98.38664245605469,4.14306640625,31.494918823242188
1700006758440226800,7.451226806640625,-98.28138732910156,4.07275390625,31.84918212890625
1700006758450139600,7.4611396484375,-98.40084838867188,3.93927001953125,31.872879028320312
1700006758460052700,7.471052734375,-98.44108581542969,3.8955841064453125,31.832122802734375
1700006758469964800,7.48096484375,-97.56466674804688,3.75384521484375,31.947616577148438
1700006758479876900,7.490876953125,-97.1923828125,3.7903289794921875,32.10737609863281
1700006758489789700,7.500789794921875,-97.77214050292969,3.9179229736328125,32.02461242675781
1700006758499702800,7.510702880859375,-96.87013244628906,3.9262542724609375,31.993560791015625
1700006758509615600,7.52061572265625,-97.07270812988281,3.5900115966796875,32.49711608886719
1700006758519527700,7.530527587890625,-96.73773193359375,3.5105133056640625,32.50831604003906
1700006758529439700,7.540439697265625,-97.11225891113281,3.610107421875,32.81031799316406
1700006758539350800,7.550350830078125,-96.76292419433594,3.566680908203125,32.94422912597656
1700006758549261800,7.56026171875,-96.46209716796875,3.2745819091796875,32.851287841796875
1700006758559172600,7.570172607421875,-96.35307312011719,3.122039794921875,32.97801208496094
1700006758569083600,7.580083740234375,-96.05747985839844,3.3902740478515625,32.73298645019531
1700006758578995700,7.58999560546875,-96.38864135742188,3.6466522216796875,33.318511962890625
1700006758588906800,7.59990673828125,-95.94242858886719,3.3848724365234375,33.162200927734375
1700006758598818800,7.60981884765625,-96.91566467285156,3.4201507568359375,33.66969299316406
1700006758608731000,7.61973095703125,-96.64912414550781,3.2762908935546875,33.588836669921875
1700006758618643700,7.629643798828125,-96.81443786621094,2.9519500732421875,33.365203857421875
1700006758628556800,7.639556884765625,-96.395263671875,2.988922119140625,33.556182861328125
1700006758638468900,7.64946875,-96.37054443359375,2.773406982421875,33.499755859375
1700006758648380000,7.6593798828125,-96.37416076660156,2.817413330078125,33.68072509765625
1700006758658291700,7.669291748046875,-96.27903747558594,2.6774444580078125,33.59587097167969
1700006758668203800,7.679203857421875,-96.67277526855469,2.8379364013671875,33.459869384765625
1700006758678114600,7.689114501953125,-96.90673828125,2.80328369140625,33.36566162109375
1700006758688026600,7.699026611328125,-96.54568481445312,2.72442626953125,33.18977355957031
1700006758697938700,7.708938720703125,-96.49758911132812,2.93133544921875,32.9801025390625
1700006758707851800,7.718851806640625,-96.52537536621094,2.74456787109375,32.90240478515625
1700006758717764600,7.7287646484375,-96.95440673828125,2.5998077392578125,32.8138427734375
1700006758727676700,7.7386767578125,-97.08567810058594,2.559478759765625,32.854034423828125
1700006758737590800,7.7485908203125,-96.68600463867188,2.8296661376953125,32.489990234375
1700006758747502800,7.7585029296875,-97.23728942871094,2.6260223388671875,32.81971740722656
1700006758757415700,7.768415771484375,-96.54985046386719,2.6233062744140625,32.60398864746094
1700006758767329800,7.778329833984375,-96.42073059082031,2.730194091796875,32.54048156738281
1700006758777243600,7.78824365234375,-97.24278259277344,3.0153350830078125,32.644744873046875
1700006758787157800,7.79815771484375,-97.37687683105469,2.8860626220703125,32.833038330078125
1700006758797070800,7.80807080078125,-97.63287353515625,3.092010498046875,32.61451721191406
1700006758806982700,7.817982666015625,-98.27149963378906,3.0710296630859375,32.88636779785156
1700006758816895700,7.827895751953125,-98.2796630859375,2.8754119873046875,32.90350341796875
1700006758826808600,7.83780859375,-98.41464233398438,2.95355224609375,32.95082092285156
1700006758836721700,7.8477216796875,-98.71905517578125,3.0607147216796875,32.90858459472656
1700006758846634800,7.857634765625,-98.75703430175781,2.886138916015625,32.90730285644531
1700006758856547800,7.8675478515625,-99.52297973632812,3.2044525146484375,33.09849548339844
1700006758866459600,7.877459716796875,-99.7579345703125,3.0298004150390625,33.14952087402344
1700006758876370700,7.88737060546875,-100.215576171875,3.3464813232421875,33.06193542480469
1700006758886282800,7.89728271484375,-100.38041687011719,3.2794189453125,33.03172302246094
1700006758896194800,7.90719482421875,-100.39883422851562,3.2400970458984375,33.26478576660156
1700006758906106600,7.917106689453125,-100.34719848632812,3.2781982421875,33.532470703125
1700006758916019700,7.927019775390625,-100.55668640136719,3.5232086181640625,33.325225830078125
1700006758925932500,7.9369326171875,-100.34953308105469,3.385650634765625,33.003387451171875
1700006758935844600,7.9468447265625,-101.07171630859375,3.6744842529296875,33.175628662109375
1700006758945757700,7.9567578125,-101.02896118164062,3.320159912109375,33.3509521484375
1700006758955669800,7.966669677734375,-100.84806823730469,3.801727294921875,33.29740905761719
1700006758965580800,7.976580810546875,-101.18826293945312,3.9535064697265625,33.11436462402344
1700006758975491600,7.98649169921875,-101.14418029785156,3.52520751953125,33.358978271484375
1700006758985403600,7.996403564453125,-100.89311218261719,3.732818603515625,33.15486145019531
1700006758995315500,8.0063154296875,-101.12120056152344,3.9538726806640625,32.80442810058594
1700006759005228500,8.016228515625,-100.84677124023438,3.771759033203125,32.84295654296875
1700006759015140600,8.026140625,-100.30049133300781,3.9891357421875,32.78797912597656
1700006759025053400,8.036053466796876,-99.468994140625,3.7761383056640625,32.630035400390625
1700006759034965500,8.045965576171875,-99.42886352539062,3.696044921875,32.62663269042969
1700006759044878600,8.055878662109375,-99.69183349609375,3.9470367431640625,31.852386474609375
1700006759054791700,8.065791748046875,-98.477294921875,4.1763458251953125,31.961395263671875
1700006759064704800,8.075704833984375,-98.28047180175781,4.2076263427734375,31.564926147460938
1700006759074616600,8.085616455078124,-98.3194580078125,4.3596649169921875,30.925857543945312
1700006759084529700,8.09552978515625,-97.42930603027344,4.0864105224609375,30.52972412109375
1700006759094441700,8.105441650390626,-97.440185546875,4.483795166015625,30.68365478515625
1700006759104354600,8.1153544921875,-97.14956665039062,4.34674072265625,30.192916870117188
1700006759114267600,8.125267578125,-97.02500915527344,4.411224365234375,30.052688598632812
1700006759124179700,8.1351796875,-96.46755981445312,4.4940643310546875,29.801528930664062
1700006759134093600,8.145093505859375,-95.98196411132812,4.55084228515625,29.081344604492188
1700006759144006400,8.15500634765625,-95.66157531738281,4.4173736572265625,29.276504516601562
1700006759153919700,8.164919677734375,-95.08027648925781,4.33990478515625,28.933456420898438
1700006759163832600,8.17483251953125,-95.06661987304688,4.5043487548828125,28.668243408203125
1700006759173744600,8.18474462890625,-93.98031616210938,4.399261474609375,28.80462646484375
1700006759183656700,8.19465673828125,-93.96255493164062,4.6537933349609375,28.484390258789062
1700006759193570600,8.204570556640626,-94.14778137207031,4.4556884765625,28.363815307617188
1700006759203482600,8.214482666015625,-93.67543029785156,4.844482421875,28.162887573242188
1700006759213394700,8.224394775390625,-93.62005615234375,4.7163848876953125,28.368682861328125
1700006759223306800,8.234306640625,-92.75947570800781,4.7006988525390625,28.3927001953125
1700006759233218600,8.244218505859376,-93.24244689941406,4.7816925048828125,28.41485595703125
1700006759243131600,8.254131591796876,-92.98410034179688,4.7501678466796875,27.848297119140625
1700006759253044500,8.26404443359375,-92.44000244140625,4.8389892578125,28.429641723632812
1700006759262956500,8.27395654296875,-91.81942749023438,4.66033935546875,28.11749267578125
1700006759272868600,8.28386865234375,-91.86741638183594,4.7408905029296875,28.298553466796875
1700006759282782500,8.293782470703125,-91.72164916992188,4.78253173828125,28.582183837890625
1700006759292695600,8.303695556640625,-92.169921875,4.7595977783203125,28.9156494140625
1700006759302607600,8.313607666015624,-91.75288391113281,4.9061737060546875,28.618820190429688
1700006759312520400,8.3235205078125,-91.77702331542969,4.8345489501953125,28.406265258789062
1700006759322433800,8.333433837890626,-91.85107421875,5.0035400390625,28.9765625
1700006759332346600,8.3433466796875,-91.60700988769531,4.7721710205078125,28.987411499023438
1700006759342258700,8.3532587890625,-91.8319091796875,4.669464111328125,28.713699340820312
1700006759352170800,8.363170654296875,-91.66488647460938,4.6923675537109375,29.246185302734375
1700006759362082600,8.37308251953125,-91.66569519042969,4.7444610595703125,29.383804321289062
1700006759371993600,8.38299365234375,-91.03169250488281,4.76995849609375,28.857711791992188
1700006759381904600,8.392904541015625,-91.76437377929688,5.0514068603515625,29.365402221679688
1700006759391816700,8.402816650390625,-91.78782653808594,4.686248779296875,29.646697998046875
1700006759401728500,8.412728515625,-90.89060974121094,4.7844085693359375,29.504928588867188
1700006759411641600,8.4226416015625,-91.316650390625,4.71661376953125,29.82342529296875
1700006759421553700,8.4325537109375,-91.09783935546875,4.841217041015625,30.157257080078125
1700006759431465700,8.4424658203125,-90.39248657226562,4.9818267822265625,29.957244873046875
1700006759441377500,8.45237744140625,-90.68472290039062,4.605255126953125,30.037689208984375
1700006759451289600,8.46228955078125,-90.67774963378906,4.6739959716796875,30.00726318359375
1700006759461203500,8.472203369140624,-90.81486511230469,4.6749114990234375,30.342498779296875
1700006759471115500,8.482115478515626,-90.65237426757812,4.7823638916015625,30.508773803710938
1700006759481027600,8.492027587890625,-91.13919067382812,4.80499267578125,30.477523803710938
1700006759490938600,8.501938720703125,-90.69819641113281,4.6534576416015625,30.937713623046875
1700006759500850700,8.5118505859375,-90.82049560546875,4.8395843505859375,30.673248291015625
1700006759510762800,8.5217626953125,-90.36814880371094,5.002960205078125,30.815750122070312
1700006759520674800,8.5316748046875,-90.90298461914062,4.923126220703125,30.66094970703125
1700006759530585600,8.541585693359375,-90.39433288574219,4.721923828125,30.984512329101562
1700006759540498400,8.55149853515625,-90.41595458984375,4.724151611328125,31.0465087890625
1700006759550410500,8.561410400390624,-91.13899230957031,4.880462646484375,31.213607788085938
1700006759560323800,8.57132373046875,-90.39846801757812,4.55377197265625,31.282638549804688
1700006759570236700,8.581236572265626,-91.27598571777344,4.77630615234375,31.66693115234375
1700006759580148700,8.591148681640625,-91.40919494628906,4.9550628662109375,31.794570922851562
1700006759590060800,8.601060791015625,-91.20277404785156,4.8217926025390625,31.612640380859375
1700006759599972600,8.61097265625,-91.48611450195312,4.6209259033203125,31.882064819335938
1700006759609884400,8.620884521484374,-91.90531921386719,4.538543701171875,31.704376220703125
1700006759619796500,8.63079638671875,-92.15005493164062,4.6304168701171875,31.660430908203125
1700006759629708500,8.64070849609375,-92.12728881835938,4.7864532470703125,32.525543212890625
1700006759639621400,8.650621337890625,-92.14744567871094,4.5715484619140625,32.29443359375
1700006759649535700,8.66053564453125,-92.53826904296875,4.577972412109375,32.46217346191406
1700006759659447600,8.670447509765625,-93.27047729492188,4.7861480712890625,32.2943115234375
1700006759669358600,8.680358642578126,-92.64591979980469,4.5498199462890625,32.8125
1700006759679271700,8.690271728515626,-93.00868225097656,4.453399658203125,32.583404541015625
1700006759689184800,8.700184814453126,-92.79939270019531,4.6827239990234375,32.547454833984375
1700006759699097600,8.71009765625,-93.25253295898438,4.55718994140625,32.54655456542969
1700006759709008600,8.720008544921875,-93.21981811523438,4.2870941162109375,32.82481384277344
1700006759718921700,8.729921630859375,-92.99180603027344,4.4121246337890625,32.66944885253906
1700006759728833800,8.739833740234374,-92.63150024414062,4.423309326171875,32.83924865722656
1700006759738746600,8.74974658203125,-93.09848022460938,4.495330810546875,33.131011962890625
1700006759748658700,8.75965869140625,-93.19873046875,4.1565093994140625,32.89569091796875
1700006759758570800,8.76957080078125,-92.60881042480469,4.4203948974609375,32.97624206542969
1700006759768483600,8.779483642578125,-93.02279663085938,4.7116851806640625,32.875946044921875
1700006759778396700,8.789396728515625,-92.86866760253906,4.7046356201171875,32.87809753417969
1700006759788309500,8.7993095703125,-93.03089904785156,4.9501953125,32.872344970703125
1700006759798222600,8.80922265625,-92.93986511230469,4.705291748046875,32.704315185546875
1700006759808135400,8.819135498046874,-92.77088928222656,4.652984619140625,32.83149719238281
1700006759818048800,8.829048828125,-92.72149658203125,4.8876495361328125,32.87229919433594
1700006759827960600,8.838960693359375,-92.75889587402344,5.067230224609375,32.960052490234375
1700006759837872400,8.848872314453125,-92.52351379394531,5.2139739990234375,33.11000061035156
1700006759847785700,8.85878564453125,-92.61813354492188,5.35943603515625,33.031829833984375
1700006759857697500,8.868697509765624,-92.63140869140625,5.204559326171875,33.22019958496094
1700006759867608600,8.878608642578126,-93.10809326171875,5.2132568359375,33.508026123046875
1700006759877521400,8.888521484375,-92.39276123046875,4.8630218505859375,33.47084045410156
1700006759887435800,8.898435791015626,-92.76083374023438,4.8035125732421875,33.660003662109375
1700006759897347600,8.90834765625,-92.50933837890625,5.0592193603515625,33.585845947265625
1700006759907259600,8.918259765625,-92.72969055175781,4.8463134765625,33.94500732421875
1700006759917170400,8.92817041015625,-92.86752319335938,5.1844329833984375,34.14231872558594
1700006759927083500,8.93808349609375,-92.56939697265625,4.855743408203125,34.13197326660156
1700006759936997600,8.94799755859375,-92.80659484863281,4.67529296875,34.04335021972656
1700006759946909700,8.95790966796875,-92.79679870605469,4.9097442626953125,34.21961975097656
1700006759956821800,8.96782177734375,-93.83033752441406,5.199859619140625,34.21006774902344
1700006759966733600,8.977733642578125,-92.92372131347656,5.082275390625,34.580963134765625
1700006759976645400,8.987645263671874,-92.88424682617188,4.9599151611328125,34.44248962402344
1700006759986557400,8.997557373046876,-92.80520629882812,4.9528045654296875,34.673919677734375
1700006759996468500,9.007468505859375,-92.709716796875,5.0511932373046875,34.79554748535156
1700006760006379500,9.017379638671875,-92.81410217285156,5.1126708984375,34.69160461425781
1700006760016291600,9.02729150390625,-92.74244689941406,5.074066162109375,34.51416015625
1700006760026204700,9.03720458984375,-93.04072570800781,5.0635986328125,34.90007019042969
1700006760036116500,9.047116455078125,-92.32650756835938,5.3742523193359375,34.723541259765625
1700006760046027500,9.057027587890625,-92.87068176269531,5.287017822265625,34.1954345703125
1700006760055939300,9.066939208984374,-93.07803344726562,5.1884307861328125,34.40985107421875
1700006760065851400,9.076851318359376,-93.09510803222656,5.5169525146484375,34.02583312988281
1700006760075762400,9.086762451171875,-93.09634399414062,5.595611572265625,34.09873962402344
1700006760085674500,9.096674560546875,-93.51417541503906,5.307861328125,33.5972900390625
1700006760095585500,9.10658544921875,-93.59231567382812,5.404632568359375,33.9698486328125
1700006760105498600,9.11649853515625,-93.64926147460938,5.5884857177734375,33.87443542480469
1700006760115411500,9.126411376953126,-93.6011962890625,5.377288818359375,33.25541687011719
1700006760125323500,9.136323486328125,-93.33285522460938,5.7686309814453125,33.297943115234375
1700006760135234600,9.146234619140625,-93.42280578613281,5.6131134033203125,33.39231872558594
1700006760145146600,9.156146728515624,-93.70664978027344,5.652252197265625,33.17066955566406
1700006760155058700,9.16605859375,-93.38552856445312,5.517242431640625,33.18879699707031
1700006760164970500,9.175970458984375,-93.2177734375,5.84442138671875,33.12736511230469
1700006760174882300,9.18588232421875,-93.60722351074219,5.7282257080078125,33.210540771484375
1700006760184794400,9.19579443359375,-93.65278625488281,5.7141265869140625,33.233795166015625
1700006760194707700,9.205707763671874,-93.38334655761719,5.89178466796875,32.723846435546875
1700006760204619500,9.21561962890625,-93.59640502929688,6.1365509033203125,33.01087951660156
1700006760214533600,9.22553369140625,-93.37307739257812,5.8895721435546875,32.7860107421875
1700006760224445700,9.23544580078125,-93.32891845703125,6.0245208740234375,32.97975158691406
1700006760234357500,9.245357421875,-93.56732177734375,6.0261688232421875,33.1617431640625
1700006760244270600,9.2552705078125,-93.67631530761719,5.8567047119140625,33.197509765625
1700006760254183400,9.265183349609375,-93.6265869140625,5.90838623046875,32.88795471191406
1700006760264096500,9.275096435546875,-93.58645629882812,6.257904052734375,32.72611999511719
1700006760274008600,9.285008544921874,-93.78524780273438,6.245208740234375,32.88458251953125
1700006760283922400,9.29492236328125,-93.43074035644531,6.29052734375,32.656280517578125
1700006760293835500,9.30483544921875,-93.74314880371094,5.800323486328125,32.85667419433594
1700006760303747300,9.314747314453125,-94.10272216796875,5.9591522216796875,33.138824462890625
1700006760313660700,9.32466064453125,-93.63084411621094,5.8802490234375,33.096527099609375
1700006760323572500,9.334572509765625,-94.14553833007812,5.798431396484375,32.75457763671875
1700006760333484300,9.344484375,-94.10145568847656,5.510009765625,33.14625549316406
1700006760343397600,9.354397705078124,-94.93086242675781,5.9227447509765625,33.04524230957031
1700006760353310500,9.364310546875,-94.74760437011719,5.8428192138671875,32.89674377441406
1700006760363222500,9.374222412109376,-94.67758178710938,5.6708831787109375,32.78303527832031
1700006760373134600,9.384134521484375,-94.97938537597656,5.856964111328125,32.86094665527344
1700006760383047700,9.394047607421875,-95.18984985351562,5.8207855224609375,32.974700927734375
1700006760392959500,9.40395947265625,-95.25369262695312,5.9641876220703125,32.8294677734375
1700006760402873600,9.41387353515625,-95.67768859863281,5.5681915283203125,33.04185485839844
1700006760412787500,9.423787353515625,-95.8017578125,5.8268585205078125,32.694854736328125
1700006760422699500,9.433699462890624,-95.68843078613281,5.796905517578125,32.91529846191406
1700006760432612400,9.4436123046875,-95.66050720214844,5.850128173828125,32.64990234375
1700006760442524400,9.4535244140625,-95.90415954589844,5.846954345703125,32.84947204589844
1700006760452437500,9.4634375,-96.06256103515625,5.9859466552734375,32.96098327636719
1700006760462350600,9.4733505859375,-96.48672485351562,5.7817230224609375,33.25270080566406
1700006760472262700,9.4832626953125,-97.04150390625,5.9512939453125,33.06788635253906
1700006760482174500,9.493174560546874,-96.70462036132812,5.963104248046875,33.32319641113281
1700006760492087600,9.503087646484374,-96.85833740234375,6.03704833984375,33.50001525878906
1700006760502000600,9.513000732421874,-96.58560180664062,6.3244781494140625,33.21391296386719
1700006760511913500,9.52291357421875,-96.41842651367188,6.16510009765625,33.5909423828125
1700006760521825500,9.532825439453125,-96.87075805664062,6.061126708984375,33.68132019042969
1700006760531738600,9.542738525390625,-97.17393493652344,6.278656005859375,33.768310546875
1700006760541651500,9.5526513671875,-96.917236328125,6.030975341796875,33.836578369140625
1700006760551564500,9.562564453125,-97.22785949707031,5.7980804443359375,33.90055847167969
1700006760561477400,9.572477294921875,-97.28265380859375,6.20489501953125,34.21748352050781
1700006760571389400,9.582389404296874,-96.65785217285156,5.88134765625,33.976409912109375
1700006760581302500,9.592302490234376,-97.06103515625,6.165802001953125,34.2293701171875
1700006760591214300,9.60221435546875,-97.60472106933594,5.89263916015625,34.449981689453125
1700006760601127700,9.612127685546875,-96.86270141601562,6.004364013671875,34.22462463378906
1700006760611040500,9.62204052734375,-96.66889953613281,5.8858642578125,34.39295959472656
1700006760620952600,9.63195263671875,-96.81315612792969,6.187744140625,34.429046630859375
1700006760630864600,9.64186474609375,-96.47673034667969,6.3704833984375,34.546722412109375
1700006760640777500,9.651777587890624,-97.12107849121094,6.0087127685546875,34.39198303222656
1700006760650690600,9.661690673828126,-96.96641540527344,6.3831634521484375,34.59474182128906
1700006760660603600,9.671603759765626,-96.59266662597656,5.9775543212890625,34.39976501464844
1700006760670516500,9.6815166015625,-96.43574523925781,6.2250823974609375,34.42236328125
1700006760680428500,9.691428466796875,-96.591552734375,6.135223388671875,34.209442138671875
1700006760690340600,9.701340576171875,-97.10478210449219,6.186187744140625,34.62603759765625
1700006760700252400,9.71125244140625,-97.12260437011719,6.40283203125,34.58213806152344
1700006760710164500,9.72116455078125,-97.35661315917969,6.1710357666015625,34.573486328125
1700006760720076500,9.73107666015625,-96.91714477539062,6.11865234375,34.31825256347656
1700006760729989600,9.74098974609375,-97.24244689941406,6.5185546875,34.52777099609375
1700006760739902500,9.75090234375,-96.44265747070312,6.298095703125,34.63336181640625
1700006760749814500,9.760814453125,-96.96212768554688,6.1718902587890625,34.529296875
1700006760759725600,9.7707255859375,-96.9105224609375,6.4351348876953125,34.39518737792969
1700006760769637600,9.7806376953125,-96.64791870117188,6.7294921875,34.63999938964844
1700006760779549700,9.7905498046875,-96.4193115234375,6.3328704833984375,34.37957763671875
1700006760789461500,9.80046142578125,-96.65310668945312,6.6680450439453125,34.41180419921875
1700006760799373600,9.81037353515625,-96.57522583007812,6.2296905517578125,34.640167236328125
1700006760809284400,9.820284423828125,-96.48530578613281,6.4237213134765625,34.424774169921875
1700006760819197400,9.830197509765625,-96.33689880371094,6.5370941162109375,34.19648742675781
1700006760829109500,9.840109619140625,-96.39308166503906,6.5381622314453125,34.54986572265625
1700006760839021600,9.850021484375,-96.12849426269531,6.9541778564453125,34.372314453125
1700006760848934400,9.859934326171874,-96.36465454101562,6.6677703857421875,34.50453186035156
1700006760858846500,9.869846435546876,-95.85739135742188,6.7087249755859375,34.68177795410156
1700006760868758500,9.879758544921875,-96.1397705078125,6.61090087890625,35.11390686035156
1700006760878670300,9.88967041015625,-95.66433715820312,6.301544189453125,35.006103515625
1700006760888582400,9.89958251953125,-95.55158996582031,6.393218994140625,35.03468322753906
1700006760898494500,9.909494384765624,-95.21031188964844,6.5094146728515625,35.084197998046875
1700006760908405500,9.919405517578125,-95.42219543457031,6.5667572021484375,35.07368469238281
1700006760918317600,9.929317626953125,-95.586669921875,6.5984344482421875,35.49891662597656
1700006760928228600,9.939228515625,-95.15354919433594,6.5615081787109375,35.64088439941406
1700006760938139400,9.949139404296876,-95.51602172851562,6.6371307373046875,35.87016296386719
1700006760948051500,9.959051513671875,-95.26213073730469,6.64215087890625,36.22196960449219
1700006760957962500,9.96896240234375,-95.39042663574219,6.388275146484375,36.33262634277344
1700006760967873500,9.97887353515625,-94.93186950683594,6.5126190185546875,36.64512634277344
1700006760977784600,9.98878466796875,-94.93757629394531,6.1544647216796875,36.752777099609375
1700006760987695400,9.9986953125,-94.28453063964844,6.3214569091796875,37.093109130859375
1700006760997608400,10.0086083984375,-94.45803833007812,6.330108642578125,37.02745056152344
1700006761007520500,10.0185205078125,-94.51123046875,6.291748046875,37.16386413574219
1700006761017432600,10.0284326171875,-94.67666625976562,6.2358856201171875,37.68174743652344
1700006761027344400,10.038344482421875,-94.49142456054688,5.98236083984375,37.733489990234375
1700006761037255400,10.04825537109375,-94.38374328613281,6.173980712890625,37.77207946777344
1700006761047167500,10.05816748046875,-93.80345153808594,6.1962738037109375,37.77827453613281
1700006761057080600,10.06808056640625,-94.52700805664062,6.1295623779296875,37.950164794921875
1700006761066992600,10.07799267578125,-94.4617919921875,5.959808349609375,38.025970458984375
1700006761076905500,10.087905517578125,-93.91664123535156,5.9655609130859375,37.82627868652344
1700006761086818600,10.097818603515625,-94.42291259765625,5.5118408203125,38.187469482421875
1700006761096731400,10.1077314453125,-94.14436340332031,5.5242919921875,37.98307800292969
1700006761106643500,10.1176435546875,-94.2894287109375,5.5555877685546875,37.94587707519531
1700006761116557600,10.1275576171875,-94.44525146484375,5.69281005859375,37.596282958984375
1700006761126469600,10.1374697265625,-94.317626953125,5.463653564453125,37.77490234375
1700006761136381700,10.147381591796876,-94.60301208496094,5.602020263671875,37.28912353515625
1700006761146294500,10.15729443359375,-95.10737609863281,5.820037841796875,37.385650634765625
1700006761156207600,10.16720751953125,-94.98448181152344,5.493377685546875,37.21714782714844
1700006761166121500,10.17712158203125,-94.35040283203125,5.4905853271484375,37.21592712402344
1700006761176035300,10.187035400390625,-94.52778625488281,5.377685546875,37.373748779296875
1700006761185949400,10.196949462890625,-94.722900390625,5.4506988525390625,36.74711608886719
1700006761195861500,10.206861572265625,-94.20066833496094,5.339935302734375,36.79560852050781
1700006761205774600,10.216774658203125,-94.523681640625,5.27899169921875,37.1939697265625
1700006761215687400,10.2266875,-94.63749694824219,5.17572021484375,36.79927062988281
1700006761225599500,10.236599609375,-94.61712646484375,5.452301025390625,36.779876708984375
1700006761235512600,10.2465126953125,-94.27731323242188,5.1930694580078125,36.95945739746094
1700006761245425400,10.25642529296875,-94.97718811035156,5.14410400390625,36.93455505371094
1700006761255337500,10.26633740234375,-94.90260314941406,5.0754241943359375,36.814117431640625
1700006761265250600,10.27625048828125,-94.985595703125,5.0522918701171875,36.98039245605469
1700006761275162400,10.286162353515625,-94.93408203125,5.0543212890625,36.88114929199219
1700006761285075500,10.296075439453125,-94.87409973144531,5.1919403076171875,36.849822998046875
1700006761294988500,10.305988525390624,-94.68574523925781,4.805328369140625,36.878204345703125
1700006761304901600,10.315901611328124,-95.08659362792969,4.9652252197265625,36.52189636230469
1700006761314814500,10.325814453125,-94.87583923339844,5.0598602294921875,36.189483642578125
1700006761324726500,10.3357265625,-95.10612487792969,4.9310760498046875,36.17301940917969
1700006761334640400,10.345640380859376,-94.48513793945312,4.968780517578125,36.23658752441406
1700006761344555500,10.355555419921876,-94.9432373046875,5.0420989990234375,36.42280578613281
1700006761354469600,10.3654697265625,-94.89939880371094,4.7934722900390625,36.495361328125
1700006761364383500,10.375383544921876,-95.63693237304688,4.7997894287109375,36.297882080078125
1700006761374297600,10.385297607421874,-96.3995361328125,4.931640625,36.137908935546875
1700006761384211500,10.39521142578125,-95.44337463378906,4.946624755859375,35.94355773925781
1700006761394124500,10.40512451171875,-95.53858947753906,4.6864776611328125,36.01318359375
1700006761404038400,10.415038330078126,-96.0224609375,5.425537109375,36.13140869140625
1700006761413952500,10.424952392578126,-96.23873901367188,4.8088226318359375,36.02813720703125
1700006761423865600,10.434865478515626,-95.52001953125,4.8430633544921875,35.94136047363281
1700006761433778400,10.4447783203125,-95.52186584472656,4.78533935546875,35.91520690917969
1700006761443692500,10.454692626953126,-96.19476318359375,4.769622802734375,36.06098937988281
1700006761453606700,10.464606689453126,-96.08824157714844,4.6085662841796875,35.96482849121094
1700006761463520500,10.4745205078125,-96.47010803222656,4.7910919189453125,36.028533935546875
1700006761473434400,10.484434326171876,-96.66554260253906,4.7368927001953125,36.25077819824219
1700006761483349500,10.494349609375,-96.52812194824219,4.580596923828125,36.21771240234375
1700006761493263400,10.504263427734376,-96.1248779296875,4.646881103515625,36.494903564453125
1700006761503177500,10.514177490234376,-95.98774719238281,4.3594818115234375,36.04835510253906
1700006761513092600,10.524092529296874,-96.70632934570312,4.6175079345703125,36.558441162109375
1700006761523006500,10.53400634765625,-96.58003234863281,4.401580810546875,36.46014404296875
1700006761532920600,10.543920654296874,-95.9781494140625,4.4779510498046875,36.80274963378906
1700006761542834400,10.55383447265625,-96.50936889648438,4.1607818603515625,37.08497619628906
1700006761552748500,10.56374853515625,-96.61676025390625,4.1947174072265625,37.37017822265625
1700006761562661400,10.573661376953124,-96.2176513671875,4.16552734375,37.620697021484375
1700006761572574700,10.58357470703125,-96.95002746582031,3.9900360107421875,37.3546142578125
1700006761582488600,10.593488525390624,-96.37336730957031,3.8724822998046875,37.88990783691406
1700006761592402400,10.60340234375,-96.82748413085938,3.7642669677734375,38.11857604980469
1700006761602316500,10.613316650390624,-96.03184509277344,4.11212158203125,38.436553955078125
1700006761612230700,10.623230712890624,-96.30487060546875,3.6446533203125,38.81793212890625
1700006761622144500,10.63314453125,-96.295654296875,3.3638458251953125,38.999603271484375
1700006761632057300,10.643057373046876,-96.27955627441406,3.1790771484375,39.269622802734375
1700006761641970700,10.652970703125,-96.421142578125,3.1119232177734375,39.976104736328125
1700006761651883500,10.662883544921876,-95.84356689453125,2.9228363037109375,40.12922668457031
1700006761661796600,10.672796630859375,-95.84371948242188,2.616241455078125,40.23321533203125
1700006761671708700,10.682708740234375,-96.02395629882812,2.5890655517578125,40.39198303222656
1700006761681621500,10.69262158203125,-96.0416259765625,2.4892578125,40.910614013671875
1700006761691534600,10.70253466796875,-95.98042297363281,2.2804107666015625,41.342071533203125
1700006761701448400,10.712448486328125,-95.55215454101562,2.471160888671875,41.66282653808594
1700006761711361500,10.722361572265624,-95.65177917480469,2.0984649658203125,41.53895568847656
1700006761721274600,10.732274658203124,-96.07548522949219,2.210418701171875,41.90275573730469
1700006761731188500,10.7421884765625,-95.81806945800781,2.153656005859375,42.23890686035156
1700006761741101600,10.7521015625,-95.64253234863281,2.0658721923828125,42.56768798828125
1700006761751015400,10.762015380859374,-95.23921203613281,1.7281646728515625,42.86344909667969
1700006761760929500,10.771929443359374,-95.50216674804688,1.804840087890625,42.869873046875
1700006761770843400,10.781843505859374,-95.59519958496094,1.6069183349609375,43.43379211425781
1700006761780757500,10.791757568359374,-96.61196899414062,1.7789154052734375,43.379791259765625
1700006761790670600,10.801670654296874,-95.61895751953125,1.595123291015625,43.43833923339844
1700006761800584400,10.81158447265625,-95.82814025878906,1.3847198486328125,43.67543029785156
1700006761810497500,10.82149755859375,-95.74444580078125,1.456573486328125,43.8463134765625
1700006761820411400,10.831411376953126,-95.93780517578125,1.3630523681640625,44.156341552734375
1700006761830324500,10.841324462890626,-95.61256408691406,1.3115997314453125,44.26692199707031
1700006761840237600,10.851237548828125,-95.58514404296875,1.2100067138671875,43.783172607421875
1700006761850151400,10.8611513671875,-95.185791015625,0.96441650390625,43.485748291015625
1700006761860064500,10.871064453125,-95.76376342773438,0.9003143310546875,43.95988464355469
1700006761869977600,10.8809775390625,-95.362060546875,0.8096466064453125,43.78466796875
1700006761879889400,10.890889404296875,-95.30325317382812,0.60296630859375,43.64656066894531
1700006761889801500,10.900801513671874,-95.24034118652344,0.34039306640625,43.720855712890625
1700006761899713500,10.910713623046876,-95.1563720703125,0.4530487060546875,43.4840087890625
1700006761909627400,10.92062744140625,-94.9459228515625,0.1928863525390625,43.652557373046875
1700006761919540500,10.93054052734375,-94.62413024902344,0.30963134765625,43.949066162109375
1700006761929452500,10.94045263671875,-95.02975463867188,0.2656097412109375,43.834503173828125
1700006761939364400,10.9503642578125,-94.21495056152344,0.4278564453125,43.826690673828125
1700006761949277400,10.96027734375,-94.83244323730469,0.49932861328125,44.20655822753906
1700006761959190500,10.9701904296875,-94.25271606445312,0.370880126953125,43.848297119140625
1700006761969103600,10.980103515625,-94.751220703125,0.0711212158203125,43.70751953125
1700006761979017000,10.990016845703124,-94.16323852539062,0.00592041015625,43.94329833984375
1700006761988930000,10.999929931640626,-94.50059509277344,-0.222412109375,44.252655029296875
1700006761998844000,11.009843994140626,-94.39480590820312,-0.1027374267578125,44.12847900390625
1700006762008757000,11.019757080078126,-94.17825317382812,-0.099456787109375,44.50569152832031
1700006762018671000,11.029671142578126,-94.15652465820312,-0.0442047119140625,44.21440124511719
1700006762028584000,11.039583984375,-94.16453552246094,-0.23663330078125,44.56126403808594
1700006762038498000,11.049498046875,-93.92233276367188,-0.379150390625,44.382476806640625
1700006762048412200,11.059412109375,-93.89854431152344,-0.2999420166015625,44.84381103515625
1700006762058326000,11.069325927734376,-94.26736450195312,-0.34564208984375,45.031707763671875
1700006762068238800,11.07923876953125,-93.65968322753906,-0.1863861083984375,45.29618835449219
1700006762078153200,11.0891533203125,-93.806884765625,-0.24346923828125,45.297576904296875
1700006762088068000,11.099068115234376,-93.92459106445312,-0.6179656982421875,45.67973327636719
1700006762097982000,11.10898193359375,-94.37159729003906,-0.2825164794921875,45.46861267089844
1700006762107896000,11.11889599609375,-94.23391723632812,-0.736846923828125,45.82844543457031
1700006762117810000,11.128809814453126,-94.25924682617188,-0.3436431884765625,45.86372375488281
1700006762127722000,11.138721923828125,-94.59226989746094,-0.7706298828125,46.00230407714844
1700006762137635000,11.148635009765625,-94.18693542480469,-0.71533203125,46.111053466796875
1700006762147548000,11.1585478515625,-94.78936767578125,-0.718292236328125,46.10302734375
1700006762157461000,11.1684609375,-94.73983764648438,-0.620025634765625,46.109100341796875
1700006762167375000,11.178375,-94.55381774902344,-0.6518707275390625,46.202789306640625
1700006762177289000,11.1882890625,-94.36552429199219,-0.986541748046875,46.380859375
1700006762187202000,11.1982021484375,-94.68667602539062,-0.7649383544921875,46.57582092285156
1700006762197116000,11.208115966796875,-94.70610046386719,-0.7156982421875,46.50920104980469
1700006762207030000,11.218030029296875,-94.72418212890625,-0.6732177734375,47.37110900878906
1700006762216943000,11.227943115234375,-94.75239562988281,-0.9702911376953125,47.15824890136719
1700006762226856000,11.23785595703125,-94.75250244140625,-0.5479736328125,47.44671630859375
1700006762236768000,11.24776806640625,-94.754150390625,-0.55157470703125,47.777801513671875
1700006762246680000,11.25768017578125,-95.01319885253906,-1.0454254150390625,47.916778564453125
1700006762256593000,11.267593017578125,-95.11418151855469,-0.9122161865234375,48.22731018066406
1700006762266506000,11.277506103515625,-94.96054077148438,-0.77947998046875,48.65495300292969
1700006762276418000,11.28741796875,-94.7030029296875,-0.732574462890625,48.975830078125
1700006762286331000,11.297330810546875,-95.074462890625,-0.39300537109375,49.26664733886719
1700006762296243000,11.307242919921874,-94.70306396484375,-0.6504058837890625,49.4713134765625
1700006762306156000,11.317156005859376,-94.53169250488281,-0.376220703125,49.60111999511719
1700006762316069000,11.327069091796876,-94.15267944335938,-0.3544921875,50.13172912597656
1700006762325982200,11.336982177734376,-94.08515930175781,-0.70245361328125,50.561492919921875
1700006762335896000,11.34689599609375,-93.70965576171875,-0.3670806884765625,50.854583740234375
1700006762345809000,11.356808837890625,-93.64358520507812,0.0825042724609375,50.79286193847656
1700006762355722000,11.366721923828125,-93.68177795410156,0.0740203857421875,51.40800476074219
1700006762365636000,11.376635986328125,-92.85676574707031,0.2291717529296875,51.0943603515625
1700006762375549200,11.386549072265625,-92.41773986816406,-0.06048583984375,51.69366455078125
1700006762385461000,11.3964609375,-92.09442138671875,0.460174560546875,51.93632507324219
1700006762395374000,11.4063740234375,-91.92041015625,0.6822662353515625,51.90122985839844
1700006762405286100,11.4162861328125,-91.83665466308594,0.531005859375,52.08265686035156
1700006762415199000,11.426198974609376,-91.01083374023438,0.9144287109375,52.18971252441406
1700006762425113000,11.436113037109376,-90.45921325683594,0.78900146484375,52.4410400390625
1700006762435027200,11.446027099609376,-90.36213684082031,1.213348388671875,52.27085876464844
1700006762444942000,11.455942138671874,-90.4385986328125,1.1508026123046875,52.46022033691406
1700006762454855000,11.46585498046875,-89.92384338378906,1.4700164794921875,52.64070129394531
1700006762464768000,11.47576806640625,-90.06614685058594,1.5831756591796875,52.86708068847656
1700006762474680000,11.48568017578125,-89.85762023925781,1.6278228759765625,52.693603515625
1700006762484591900,11.495591796875,-89.41854858398438,1.5778656005859375,52.441162109375
1700006762494505000,11.5055048828125,-89.60585021972656,1.664276123046875,52.77549743652344
1700006762504417800,11.515417724609375,-89.55574035644531,2.0885772705078125,53.10884094238281
1700006762514331100,11.5253310546875,-89.02227783203125,1.8950958251953125,52.82035827636719
1700006762524244000,11.535243896484374,-89.06588745117188,2.38580322265625,52.91082763671875
1700006762534157000,11.545156982421876,-88.29071044921875,2.3949432373046875,52.53370666503906
1700006762544071000,11.55507080078125,-88.24641418457031,2.2086944580078125,52.96446228027344
1700006762553984000,11.56498388671875,-88.59197998046875,2.5110321044921875,52.78338623046875
1700006762563897000,11.57489697265625,-88.30281066894531,2.5424346923828125,52.42552185058594
1700006762573812000,11.58481201171875,-87.68669128417969,2.1678619384765625,52.48820495605469
1700006762583725800,11.594725830078126,-87.73902893066406,2.058990478515625,52.64434814453125
1700006762593641000,11.604640869140624,-87.88632202148438,2.3446502685546875,52.6959228515625
1700006762603555800,11.614555908203124,-87.64457702636719,2.1966400146484375,52.495452880859375
1700006762613470000,11.624469970703124,-87.62443542480469,2.15777587890625,52.13807678222656
1700006762623384000,11.634384033203125,-87.46916198730469,2.0069122314453125,51.85235595703125
1700006762633299200,11.64429931640625,-87.64939880371094,2.1379547119140625,52.164764404296875
1700006762643213000,11.654213134765625,-87.29841613769531,2.2781829833984375,52.26310729980469
1700006762653126000,11.6641259765625,-87.47286987304688,1.9961090087890625,52.11466979980469
1700006762663040000,11.6740400390625,-87.14874267578125,2.3384552001953125,52.16093444824219
1700006762672954000,11.6839541015625,-87.55770874023438,2.0884552001953125,52.11042785644531
1700006762682868000,11.693867919921875,-87.10691833496094,2.1110076904296875,52.08038330078125
1700006762692781000,11.703781005859375,-87.39970397949219,2.20501708984375,52.233917236328125
1700006762702692900,11.71369287109375,-87.77711486816406,2.0899200439453125,52.44667053222656
1700006762712606000,11.72360595703125,-87.93905639648438,2.009521484375,52.79414367675781
1700006762722518000,11.73351806640625,-87.37655639648438,2.2206573486328125,52.481170654296875
1700006762732430000,11.74343017578125,-87.47381591796875,2.59356689453125,52.56221008300781
1700006762742342000,11.753341796875,-87.40426635742188,2.5198974609375,52.417755126953125
1700006762752255000,11.7632548828125,-87.31997680664062,2.3468017578125,52.5032958984375
1700006762762167800,11.773167724609374,-87.73854064941406,2.21844482421875,53.114288330078125
1700006762772081000,11.783080810546876,-87.37734985351562,2.281036376953125,52.94354248046875
1700006762781995000,11.7929951171875,-87.33839416503906,2.53741455078125,53.252716064453125
1700006762791908900,11.802908935546874,-87.31777954101562,2.4787139892578125,53.14537048339844
1700006762801822000,11.812822021484376,-87.57823181152344,2.5321502685546875,53.40025329589844
1700006762811735000,11.822735107421876,-87.08052062988281,2.6464080810546875,53.510833740234375
1700006762821648100,11.832648193359375,-87.44302368164062,2.4044647216796875,53.84843444824219
1700006762831561200,11.842561279296875,-87.71250915527344,2.524688720703125,53.83551025390625
1700006762841474000,11.85247412109375,-86.89102172851562,2.5007171630859375,53.898773193359375
1700006762851387100,11.86238720703125,-86.873046875,2.516265869140625,54.12184143066406
1700006762861300000,11.872300048828125,-86.33743286132812,2.7865753173828125,54.17132568359375
1700006762871213800,11.8822138671875,-86.91390991210938,2.641754150390625,54.334808349609375
1700006762881127200,11.892127197265625,-86.10494995117188,2.734954833984375,54.70051574707031
1700006762891040000,11.9020400390625,-85.60208129882812,2.642425537109375,54.79808044433594
1700006762900953000,11.911953125,-86.24430847167969,2.895721435546875,55.04551696777344
1700006762910865200,11.921865234375,-85.82131958007812,3.12615966796875,55.266876220703125
1700006762920777000,11.93177685546875,-85.06036376953125,2.968353271484375,55.335235595703125
1700006762930689000,11.94168896484375,-85.2554931640625,3.3844451904296875,55.8201904296875
1700006762940601000,11.95160107421875,-84.41403198242188,3.173736572265625,55.97088623046875
1700006762950514200,11.96151416015625,-84.6151123046875,3.4586639404296875,56.215606689453125
1700006762960426000,11.971426025390626,-84.38236999511719,3.2604522705078125,56.53245544433594
1700006762970339000,11.981339111328126,-83.86093139648438,3.43450927734375,56.68464660644531
1700006762980251600,11.991251708984375,-83.77217102050781,3.929595947265625,56.91255187988281
1700006762990164500,12.00116455078125,-83.30439758300781,3.925689697265625,57.21733093261719
1700006763000076500,12.01107666015625,-82.81094360351562,3.6415863037109375,57.371002197265625
1700006763009989400,12.0209892578125,-82.59054565429688,3.7636566162109375,58.03614807128906
1700006763019902700,12.03090283203125,-82.74468994140625,3.8267669677734375,58.39726257324219
1700006763029815600,12.040815673828124,-82.14947509765625,3.902679443359375,58.67103576660156
1700006763039728600,12.050728759765626,-82.01976013183594,4.2759552001953125,59.41664123535156
1700006763049640700,12.060640625,-81.60881042480469,4.3453369140625,59.16046142578125
1700006763059552800,12.070552734375,-81.5845947265625,4.387847900390625,59.66587829589844
1700006763069464600,12.080464599609375,-81.35781860351562,4.7543182373046875,60.355804443359375
1700006763079375600,12.090375732421874,-81.77989196777344,4.653594970703125,60.34892272949219
1700006763089288700,12.100288818359376,-81.25953674316406,4.3633880615234375,60.8341064453125
1700006763099200500,12.110200439453125,-80.85508728027344,4.37847900390625,60.882415771484375
1700006763109112600,12.120112548828125,-80.74873352050781,4.370452880859375,61.17112731933594
1700006763119024600,12.130024658203125,-80.88494873046875,4.5877227783203125,61.03094482421875
1700006763128937500,12.1399375,-80.80186462402344,4.5749664306640625,61.294219970703125
1700006763138850800,12.149850830078124,-80.81289672851562,4.2049560546875,61.66896057128906
1700006763148762600,12.1597626953125,-81.17854309082031,4.5471954345703125,61.74095153808594
1700006763158675700,12.16967578125,-80.81271362304688,4.207183837890625,61.14497375488281
1700006763168587800,12.179587890625,-81.19354248046875,4.2166748046875,61.6473388671875
1700006763178499600,12.18949951171875,-80.9010009765625,4.00830078125,61.416839599609375
1700006763188412700,12.19941259765625,-81.40684509277344,4.2052154541015625,61.42701721191406
1700006763198325800,12.20932568359375,-81.62562561035156,4.2143707275390625,61.63812255859375
1700006763208238600,12.219238525390624,-81.71070861816406,4.2066497802734375,61.72673034667969
1700006763218151700,12.229151611328126,-81.31733703613281,3.7314300537109375,61.432037353515625
1700006763228065500,12.2390654296875,-81.59675598144531,3.501220703125,61.6976318359375
1700006763237979600,12.248979736328126,-81.73959350585938,3.7248687744140625,61.64549255371094
1700006763247892700,12.258892822265626,-81.96638488769531,3.428558349609375,61.73004150390625
1700006763257804500,12.268804443359375,-82.70075988769531,3.47589111328125,62.1064453125
1700006763267716600,12.278716552734375,-83.00588989257812,3.77886962890625,61.651611328125
1700006763277628700,12.288628662109375,-82.52848815917969,3.5854034423828125,61.739959716796875
1700006763287540700,12.298540771484374,-82.50506591796875,3.53509521484375,61.752593994140625
1700006763297452800,12.308452880859376,-82.50157165527344,3.0455474853515625,62.38519287109375
1700006763307364600,12.318364501953125,-83.26724243164062,3.4252777099609375,62.05561828613281
1700006763317276700,12.328276611328125,-83.04817199707031,3.0158233642578125,62.06553649902344
1700006763327187500,12.3381875,-83.11831665039062,2.8265533447265625,62.14735412597656
1700006763337099500,12.348099609375,-83.69589233398438,2.81329345703125,62.13774108886719
1700006763347010600,12.358010498046875,-83.87078857421875,2.4635772705078125,62.51084899902344
1700006763356921600,12.367921630859374,-83.86235046386719,2.3366241455078125,62.04890441894531
1700006763366833700,12.377833740234376,-83.93771362304688,2.406982421875,62.57572937011719
1700006763376745700,12.387745849609376,-84.78959655761719,2.041351318359375,62.68267822265625
1700006763386658600,12.397658447265625,-84.84483337402344,1.9139556884765625,62.72242736816406
1700006763396571600,12.407571533203125,-84.92684936523438,2.0919952392578125,62.67362976074219
1700006763406485500,12.417485595703125,-85.16244506835938,1.7473297119140625,62.41600036621094
1700006763416397600,12.4273974609375,-85.4825439453125,1.849212646484375,62.762420654296875
1700006763426310700,12.437310546875,-85.63490295410156,1.8051910400390625,62.750518798828125
1700006763436223500,12.447223388671874,-85.89122009277344,1.3953704833984375,62.727874755859375
1700006763446135600,12.457135498046876,-86.232666015625,1.3951568603515625,62.66508483886719
1700006763456049700,12.467049560546876,-86.63665771484375,1.579742431640625,62.4737548828125
1700006763465962800,12.476962646484376,-86.79286193847656,1.6140289306640625,62.76271057128906
1700006763475874600,12.48687451171875,-86.75238037109375,1.5111083984375,62.45811462402344
1700006763485786600,12.49678662109375,-87.11314392089844,1.6913299560546875,62.569793701171875
1700006763495698700,12.50669873046875,-87.26170349121094,1.89373779296875,62.511688232421875
1700006763505610800,12.51661083984375,-87.2176513671875,1.5527191162109375,62.29167175292969
1700006763515524600,12.526524658203124,-87.98347473144531,1.347442626953125,62.25929260253906
1700006763525435600,12.536435546875,-87.74212646484375,1.4495086669921875,62.33518981933594
1700006763535346400,12.546346435546875,-87.81997680664062,1.5825958251953125,62.61824035644531
1700006763545258500,12.556258544921874,-87.97325134277344,1.439605712890625,62.38055419921875
1700006763555170600,12.566170654296876,-87.866943359375,1.2236480712890625,62.116607666015625
1700006763565082600,12.57608251953125,-88.58474731445312,1.651641845703125,61.71742248535156
1700006763574994700,12.58599462890625,-88.03215026855469,1.560546875,61.909210205078125
1700006763584905700,12.59590576171875,-88.09001159667969,1.37640380859375,61.898529052734375
1700006763594818600,12.605818603515624,-88.68646240234375,1.5474090576171875,61.30741882324219
1700006763604730600,12.615730712890626,-88.26799011230469,1.66156005859375,61.52191162109375
1700006763614641700,12.6256416015625,-88.26856994628906,1.8782958984375,61.54786682128906
1700006763624553700,12.6355537109375,-87.89808654785156,1.5245513916015625,61.49879455566406
1700006763634465800,12.6454658203125,-88.21481323242188,1.82122802734375,61.5225830078125
1700006763644377600,12.655377685546876,-87.72247314453125,2.015533447265625,61.265350341796875
1700006763654289400,12.665289306640625,-88.09773254394531,1.850830078125,61.29527282714844
1700006763664200400,12.675200439453125,-87.42707824707031,2.012115478515625,61.12590026855469
1700006763674112500,12.685112548828124,-87.37631225585938,2.1572418212890625,60.968841552734375
1700006763684023600,12.6950234375,-87.52677917480469,1.80291748046875,60.99177551269531
1700006763693936600,12.7049365234375,-87.10948181152344,1.9907989501953125,60.53741455078125
1700006763703848700,12.7148486328125,-87.5201416015625,2.1757965087890625,60.54399108886719
1700006763713761500,12.724761474609375,-87.35191345214844,2.436553955078125,60.751251220703125
1700006763723674600,12.734674560546875,-87.27413940429688,2.37579345703125,61.00614929199219
1700006763733587500,12.74458740234375,-87.20231628417969,2.47015380859375,60.827789306640625
1700006763743500800,12.754500732421874,-87.38385009765625,2.884857177734375,60.91552734375
1700006763753411600,12.76441162109375,-87.29582214355469,2.8252716064453125,60.887603759765625
1700006763763324400,12.774324462890625,-86.80911254882812,2.951690673828125,61.00958251953125
1700006763773236500,12.784236572265625,-86.97370910644531,2.8025360107421875,60.857940673828125
1700006763783147500,12.7941474609375,-86.85273742675781,2.8672943115234375,61.04377746582031
1700006763793059600,12.8040595703125,-86.79072570800781,2.6437225341796875,60.64207458496094
1700006763802972700,12.81397265625,-86.85719299316406,2.926483154296875,60.605865478515625
1700006763812884500,12.823884521484375,-86.6278076171875,2.69989013671875,60.4996337890625
1700006763822797600,12.833797607421875,-87.194091796875,2.9058380126953125,60.71186828613281
1700006763832709600,12.843709716796875,-87.22529602050781,2.9338226318359375,60.34291076660156
1700006763842621400,12.853621337890624,-87.33921813964844,2.8673095703125,60.533111572265625
1700006763852533500,12.863533447265626,-87.73098754882812,2.7411041259765625,60.52830505371094
