time,seconds_elapsed,z,y,x
1700007020617306600,0.036306640625,0.021440262913703916,0.15715426300019025,-0.11591160404030233
1700007020627251700,0.046251708984375,-0.043966567498445505,0.16894816116839648,-0.27973285064902154
1700007020637196500,0.056196533203125,-0.1840676966279745,0.129203887540102,-0.3234634539671242
1700007020647142700,0.066142578125,-0.2705722601264715,0.1395274208948016,-0.2974839036559686
1700007020657087500,0.07608740234375,-0.2673305017262697,0.20356413199752568,-0.2713865721840411
1700007020667032600,0.086032470703125,-0.20958850685358046,0.25676848344057795,-0.21515026916656643
1700007020676977700,0.095977783203125,-0.10339549254477023,0.24145780932307243,-0.14313746461812407
1700007020686922500,0.105922607421875,-0.0032207156121730803,0.23943799393326043,-0.11059424494244158
1700007020696867600,0.11586767578125,0.0509860908716917,0.2350646011546254,-0.185097879925929
1700007020706813700,0.125813720703125,0.09653086747229099,0.21338176165670156,-0.31716365970317273
1700007020716758500,0.135758544921875,0.1544096404671669,0.15398995375037192,-0.3997647494897246
1700007020726703600,0.14570361328125,0.16515665993094444,0.06690232966691255,-0.3741203128844499
1700007020736648400,0.1556484375,0.17106968336701392,0.030353052687644957,-0.2737491000643
1700007020746593800,0.16559375,0.16329963388741014,0.016763211013376713,-0.12599161096271128
1700007020756539600,0.17553955078125,0.0831190127134323,-0.05971417172849178,-0.04355948453489691
1700007020766484500,0.185484375,-0.08755553385615349,-0.10872516313493251,-0.005371171644330024
1700007020776429600,0.1954296875,-0.2775964596748352,-0.12785188840925693,0.0029672888403758403
1700007020786374700,0.205374755859375,-0.4612210887104273,-0.13895780431330204,0.03923866219371557
1700007020796319500,0.215319580078125,-0.5479413407862186,-0.14482435825914144,0.0538842599986121
1700007020806265600,0.225265625,-0.48804421370625495,-0.15607055941671133,0.08949874034579842
1700007020816210400,0.23521044921875,-0.4560229355454445,-0.17682780850231647,0.1532620778672397
1700007020826155800,0.24515576171875,-0.38107086267471313,-0.1397021929398179,0.16826138448063283
1700007020836100600,0.2551005859375,-0.2774772172093391,-0.07253799746632575,0.1472469822961837
1700007020846045400,0.26504541015625,-0.20894377920925616,-0.03483224392831325,0.15165387548562137
1700007020855990500,0.274990478515625,-0.18979951827824115,0.010465279912948608,0.19201386985946445
1700007020865936600,0.2849365234375,-0.1526490605354309,0.09145107998996972,0.21523871463499963
1700007020875881700,0.2948818359375,-0.13339315592348575,0.13325754684507846,0.24931108010672032
1700007020885826600,0.30482666015625,-0.08667699745595454,0.13213029638081789,0.26097221874073145
1700007020895771400,0.314771484375,-0.029603695625066755,0.14622165783643723,0.24928894134014842
1700007020905716700,0.324716796875,0.07952303404808043,0.16969196527302263,0.22275796769130973
1700007020915662600,0.33466259765625,0.19339841955304143,0.1471963480874896,0.20835750375390052
1700007020925607700,0.344607666015625,0.27993162462413307,0.11165420232415199,0.2209457306375727
1700007020935552500,0.354552490234375,0.3739221599638462,0.07890490214973687,0.2597816937819123
1700007020945497600,0.36449755859375,0.4007476230472326,0.028021687130630014,0.29371410279367116
1700007020955442700,0.374442626953125,0.40131694736778734,0.025978490865230557,0.31021844367515294
1700007020965388500,0.384388427734375,0.38853111555278297,0.03969342022389173,0.3380033263752237
1700007020975333600,0.394333740234375,0.37613340627253056,0.013018471527099609,0.36488325959220524
1700007020985278700,0.40427880859375,0.3393617187142372,-0.0010234978288412094,0.36815738589204844
1700007020995223600,0.4142236328125,0.3336573695927858,0.0095963881239295,0.3664639163797721
1700007021005168600,0.424168701171875,0.3466191424965858,-0.0058133624538779256,0.3518840407548472
1700007021015113500,0.434113525390625,0.36182021875977516,-0.04279635467529297,0.29933618045914917
1700007021025059600,0.4440595703125,0.36007249830961224,-0.07567191157788038,0.24772136322986332
1700007021035004700,0.454004638671875,0.3126461457461118,-0.05842617774456739,0.2334140209360048
1700007021044949500,0.463949462890625,0.29829028813540936,-0.03156067491173744,0.25283658735174686
1700007021054894600,0.47389453125,0.3420236313998699,-0.008392857553064823,0.2493311365140602
1700007021064839700,0.483839599609375,0.3713251292079687,-0.006825169844925403,0.2340209007879719
1700007021074785800,0.493785888671875,0.3793120363086462,-0.009756839382648468,0.18945611166805026
1700007021084730600,0.503730712890625,0.3707347620993852,-0.02896656676530838,0.14949658785387873
1700007021094675500,0.513675537109375,0.29196809937655926,-0.08018938900232314,0.1633405504196882
1700007021104620800,0.523620849609375,0.13291443249583243,-0.05155161579996347,0.21821287160757927
1700007021114565600,0.533565673828125,0.01621522174179554,0.014943009848892687,0.2654102011881769
1700007021124510500,0.543510498046875,-0.04663607896864414,0.03502075223773718,0.2665970180862583
1700007021134456600,0.55345654296875,-0.09415537051260471,0.03971767788231373,0.23510482356715945
1700007021144401700,0.563401611328125,-0.0897246945887804,0.009833119489252567,0.12975697311190887
1700007021154346800,0.5733466796875,-0.11660919438302517,-0.027156886994838713,0.0708363446475938
1700007021164291600,0.58329150390625,-0.17764672366976736,-0.010702303539216518,0.1474238001678139
1700007021174236400,0.593236328125,-0.3283347132652998,0.05686258168965578,0.2551948957146145
1700007021184182500,0.6031826171875,-0.6086199736326933,0.2393406710386276,0.31750896600950507
1700007021194127600,0.613127685546875,-0.9481792607456445,0.4132771420136094,0.3374540584620088
1700007021204072700,0.62307275390625,-1.21057522867918,0.5415221213936805,0.36186420403197406
1700007021214017500,0.633017578125,-1.286535017287731,0.5968038636326789,0.3904796192720532
1700007021223962600,0.642962646484375,-1.0900427233725785,0.7025397818237543,0.4681769722629338
1700007021233908500,0.652908447265625,-0.7713058595359324,0.7401713010817765,0.6591667963042855
1700007021243853300,0.662853271484375,-0.22363456786274907,0.3986211324125528,1.0555192531324922
1700007021253798100,0.672798095703125,0.12425649426579474,-0.30473727231770753,1.3749905687235295
1700007021263743500,0.682743408203125,0.23018530468046663,-0.25830869861990213,1.4587557703860103
1700007021273688300,0.692688232421875,-0.38704467638731,0.3763169461458921,1.7956797405593097
1700007021283633200,0.702633056640625,-1.5652321316808462,1.4467717564731835,2.1815442672513425
1700007021293579300,0.712579345703125,-3.2388474811911583,2.4210756385564802,2.521682084904611
1700007021303524400,0.7225244140625,-4.339876293480396,2.9862825869202614,2.7176690596461293
1700007021313469400,0.732469482421875,-4.553814227715135,2.1958812740311027,1.673748474370688
1700007021323414300,0.742414306640625,-4.372992965662479,1.3282494219452141,0.07522190278805792
1700007021333359400,0.752359375,-4.058899543717503,1.0178145225077866,-0.7215568361785263
1700007021343305500,0.762305419921875,-3.4428006125062702,0.793034291741252,-0.7737135051995515
1700007021353250300,0.772250244140625,-2.9769758293926714,0.5885153432369232,-0.5303380256868898
1700007021363195400,0.7821953125,-2.736114816918969,0.3805605750650167,-0.15881372064501045
1700007021373140200,0.79214013671875,-2.6502731012433767,0.21677461896538733,0.16024010018631815
1700007021383085300,0.802085205078125,-2.324310377806425,0.19303718502521514,0.15134776867851615
1700007021393030400,0.812030517578125,-1.810810820326209,0.11451660601794719,-0.11347937192469834
1700007021402976300,0.821976318359375,-1.7958359540343283,-0.1713578526586294,-0.28463410322666166
1700007021412921300,0.83192138671875,-1.9685960747063158,-0.27841420579850673,-0.45101350988559424
1700007021422866400,0.841866455078125,-2.1899457465022802,-0.31167759297490116,-0.5905617178400978
1700007021432811300,0.851811279296875,-2.349137360548973,-0.34582828437983987,-0.6106264911495148
1700007021442756400,0.86175634765625,-2.2475439489901063,-0.20079379050135612,-0.6884007818341255
1700007021452702200,0.8717021484375,-2.135640740340948,-0.035983752050995826,-0.7400090962573885
1700007021462647600,0.8816474609375,-2.132983503830433,0.28900457339584823,-0.7965326552510261
1700007021472592400,0.89159228515625,-2.174479881823063,0.7450298470288514,-0.9381585097298025
1700007021482537200,0.901537109375,-2.361400045272708,1.2998837436825037,-1.1561782333854584
1700007021492482300,0.911482421875,-2.4218325944036243,1.9926579182952642,-1.4281906823828816
1700007021502428400,0.921428466796875,-2.1490508415341374,2.3780483977347613,-1.5109595664843916
1700007021512373500,0.93137353515625,-1.5983108099400996,2.3925012859791517,-1.2324027373448014
1700007021522318300,0.941318359375,-0.8892693911373615,2.059530145084858,-0.721440662452951
1700007021532263200,0.95126318359375,-0.11736615023016929,1.7073802564680576,-0.38981341044828294
1700007021542208500,0.96120849609375,0.5877075339853763,1.5814777485609053,-0.32209896068088706
1700007021552153300,0.9711533203125,1.5223878462105989,1.2284224355369806,0.16679931257143615
1700007021562099500,0.981099365234375,2.5262603526055813,0.25357377905249595,1.9038858482562004
1700007021572044300,0.991044189453125,3.106698772370815,0.2128413711696863,2.4777058727949854
1700007021581989400,1.0009892578125,3.4097482377320527,1.5061235246300697,0.9468054881744086
1700007021591934500,1.0109345703125,3.4424569136351346,2.2490543535530567,0.06774199536144733
1700007021601879300,1.02087939453125,3.381653193104267,2.164344856777787,-0.10145794861093163
1700007021611825400,1.030825439453125,3.023040245953202,1.7597902426630259,-0.088473087092489
1700007021621770500,1.0407705078125,2.3097324018776417,1.5086714555472134,-0.28387305572628974
1700007021631715300,1.05071533203125,1.5969757619440554,1.4867857869535683,-0.7774184971973299
1700007021641660400,1.060660400390625,0.6314432153373957,1.2226479437887667,-1.0338064568877219
1700007021651605200,1.070605224609375,-1.0108481906265019,0.5497849228262901,-1.014287225164473
1700007021661550300,1.08055029296875,-1.2974217374831438,0.5249146854639053,-0.5490849578633904
1700007021671496400,1.090496337890625,0.0417643812790513,1.3349772688955068,-0.016950696409493683
1700007021681441300,1.100441162109375,1.9951269387573003,1.8969138172864912,0.3772142603117972
1700007021691386400,1.110386474609375,2.9183623123824596,1.2453262240648268,0.9696427584044635
1700007021701331500,1.12033154296875,3.498520161640644,0.7410808171421289,1.0973314190760255
1700007021711276300,1.1302763671875,3.6967005547732112,0.6884890446394681,0.7365520876713096
1700007021721222400,1.140222412109375,3.1968262025415894,0.42724926100373267,0.44450843884050845
1700007021731167200,1.150167236328125,2.4308067589759825,0.0787841983795166,-0.10784551248988136
1700007021741112300,1.1601123046875,1.449598504331708,0.06940905179083347,-0.8159283336598425
1700007021751057400,1.170057373046875,0.43931642315536734,0.17195581855177877,-1.214237696709484
1700007021761002200,1.180002197265625,-0.08130085737556218,0.36400106993019576,-1.2832877059295773
1700007021770948400,1.1899482421875,-0.24930004725605248,0.4657382738739252,-1.117480253939703
1700007021780893400,1.1998935546875,-0.06185410636663437,0.45891982603073117,-0.8296492543678731
1700007021790838300,1.20983837890625,0.4503450360395014,0.4626391388148069,-0.23109779814919457
1700007021800783400,1.219783447265625,1.1182505807250738,0.4534212286144495,0.52903914498277
1700007021810728200,1.229728271484375,1.7393161944329738,0.5304705660253762,0.9752230427548289
1700007021820673500,1.239673583984375,1.9080127189278602,0.5255681809365749,1.1998995208859442
1700007021830619400,1.249619384765625,1.6879899118214845,0.4277116178184747,1.4395005964264274
1700007021840564200,1.259564208984375,1.292736210015416,0.36456454903185365,1.5216349820166826
1700007021850509300,1.26950927734375,1.0523954220235348,0.4593944578051567,1.3295252870999277
1700007021860454400,1.279454345703125,0.9353297160446643,0.6001081658750772,1.111772909143567
1700007021870399200,1.289399169921875,0.9205179313600063,0.6859095495402813,0.9121494775958359
1700007021880345300,1.299345458984375,1.013531657556817,0.7684820342868566,0.6533662933319807
1700007021890290200,1.309290283203125,1.2700620213925837,0.8814420585125684,0.4340213124219328
1700007021900235500,1.319235595703125,1.6683175353631376,1.0089052398651839,0.1916853320248425
1700007021910180400,1.329180419921875,2.173947966903448,1.1859101585000753,-0.08693402269063517
1700007021920125200,1.339125244140625,2.654360662817955,1.2936603391230106,-0.31851269969195123
1700007021930070500,1.349070556640625,2.9736335332274435,1.2577122429072856,-0.45330483569316565
1700007021940016400,1.359016357421875,3.2908313509285447,1.3217927931517361,-0.5734580593585967
1700007021949961500,1.36896142578125,3.460639636057615,1.1068927358865737,-0.5700619871795177
1700007021959906300,1.37890625,3.7002453877732155,0.6927063700735568,-0.7715745204094797
1700007021969851100,1.38885107421875,3.690705113750696,0.19295652100443839,-1.1468128775384276
1700007021979796500,1.39879638671875,3.222579067957401,-0.1738327183395624,-1.3468604527823627
1700007021989742300,1.408742431640625,2.3604124955400825,-0.31022037990391255,-1.1060393339276313
1700007021999687400,1.4186875,1.4354887304365633,-0.5413379969984292,-0.6955109061002731
1700007022009632300,1.42863232421875,0.8903928422093391,-0.8368249181509018,-0.6418792691558599
1700007022019577300,1.438577392578125,0.8109026875175536,-0.9517319847911596,-0.8554982005693018
1700007022029522400,1.4485224609375,1.0323764240846036,-0.9816127437919377,-0.8767280356027185
1700007022039467300,1.45846728515625,1.3391747205853461,-1.0092653053492306,-0.7351236623033881
1700007022049413400,1.468413330078125,1.1348397503457963,-1.062113682961464,-0.39508572482801974
1700007022059358500,1.4783583984375,0.28916984696015713,-1.1444213792920113,0.1060672325046733
1700007022069303300,1.48830322265625,1.2324598743595183,-0.6361755045562982,-0.1899288802789524
1700007022079248400,1.498248291015625,1.1373648849092424,-0.5014736041218042,0.14152376407748088
1700007022089193500,1.508193359375,1.1142261475145816,-0.3075742493093014,0.34908819949124004
1700007022099139300,1.518139404296875,1.1370179711677133,-0.02993336597084999,0.5838404102284461
1700007022109084400,1.52808447265625,1.1970040917053817,0.2536065122783184,0.7275168405614792
1700007022119029200,1.538029296875,1.1335798134125767,0.48841012440919873,0.6361572382472455
1700007022128974300,1.547974365234375,1.0670599071919917,0.7054898638010024,0.4723080076530575
1700007022138919400,1.55791943359375,0.9412085449501871,0.8018634948849678,0.3753806151438504
1700007022148864300,1.5678642578125,0.9297906404875218,0.8998714491724967,0.28115431655319406
1700007022158810400,1.577810302734375,1.1203167194746435,0.9182909029603004,0.1892439484884031
1700007022168755200,1.587755126953125,1.6123904809579253,0.8965911123275756,0.08636743831643834
1700007022178700500,1.597700439453125,1.5510006311021745,0.9111194038957356,0.012826437820028513
1700007022188645400,1.607645263671875,0.9786930569529533,0.957186158543825,-0.4470856689173728
1700007022198590200,1.617590087890625,0.9844868379235268,0.8473778763473033,-0.8920504001580178
1700007022208536300,1.627536376953125,1.0480864727832377,0.8514847271442413,-0.8587211812037974
1700007022218481400,1.6374814453125,1.2660136227846144,0.8166466379970312,-0.6699974023982882
1700007022228426500,1.647426513671875,1.5002806438207625,0.7687748797535896,-0.31302886145338416
1700007022238371000,1.65737109375,1.6449860518753527,0.7650351087033748,-0.046400251785619184
1700007022248316200,1.667316162109375,1.6241631902076303,0.7109358542472124,-0.15636968849375843
1700007022258262300,1.67726220703125,1.588614906964451,0.7148977436155081,-0.3747016929689795
1700007022268207400,1.687207275390625,1.5948622769214211,0.7598112365752459,-0.4742385007916018
1700007022278152200,1.697152099609375,1.634199138792604,0.8143219944417476,-0.45016463797129685
1700007022288097000,1.707096923828125,1.6188159839607774,0.8093862916052341,-0.3205676959929988
1700007022298042400,1.71704248046875,1.6838475513197482,0.791952341723442,-0.1293185634283349
1700007022307987200,1.7269873046875,1.7440977296210824,0.7878133422225714,0.025880035459436474
1700007022317933300,1.736933349609375,1.741037319137156,0.7164128243535757,0.09607028248952701
1700007022327878100,1.746878173828125,1.6029659422695637,0.5024591080278158,-0.022625577407865784
1700007022337823200,1.7568232421875,1.4513304426908493,0.09876783274412154,-0.23710061876056715
1700007022347768300,1.766768310546875,1.3862534287549555,-0.18876374548971653,-0.3083630615994334
1700007022357713200,1.776713134765625,1.363966632014513,-0.4309071989893913,-0.38000995544493194
1700007022367659300,1.7866591796875,1.3245745328247547,-0.6170499483257532,-0.3875179199222475
1700007022377604400,1.796604248046875,1.2972165702998637,-0.7555787135720252,-0.38053734031990166
1700007022387549200,1.806549072265625,1.3035726613283156,-0.8775678474277258,-0.38991913584508
1700007022397494300,1.816494384765625,1.3766402356266974,-1.0161287613779306,-0.3637740562412888
1700007022407439000,1.826439208984375,1.410892049318552,-1.3078425937324762,-0.3678119334552437
1700007022417384200,1.83638427734375,1.1211993475280702,-1.6171838527143,-0.38813462704848495
1700007022427330300,1.846330322265625,0.7538730786979198,-1.9109733222991228,-0.3510260722186416
1700007022437275100,1.856275146484375,0.7253099781669676,-2.269780915239453,-0.2175228252504952
1700007022447220200,1.86622021484375,0.717098468530178,-2.562863697859645,-0.0700337230278179
1700007022457165300,1.876165283203125,0.52783861008659,-2.8138959757357833,0.09061967066712677
1700007022467110100,1.886110107421875,0.3484288222670555,-3.166906865096092,0.3268630332775414
1700007022477056300,1.89605615234375,0.47716041612029075,-3.468504378083348,0.30429109945278615
1700007022487001000,1.9060009765625,0.6562241669811308,-3.5195950983732938,0.18281638139262793
1700007022496946400,1.915946533203125,0.43304771814942356,-3.24281638482213,0.217859272396937
1700007022506891300,1.925891357421875,-0.1333260820366442,-2.6620196531385183,0.3730304718211293
1700007022516836000,1.935836181640625,-0.9060383012391626,-1.9043559499859808,0.48402493159491566
1700007022526781400,1.945781494140625,-1.6723991055883467,-1.0084995816737412,0.5738207551911473
1700007022536727300,1.955727294921875,-2.3519852973259985,-0.14006488877236842,0.5781151279168203
1700007022546672000,1.965672119140625,-2.620745977985859,0.620330869692564,0.6500086534671485
1700007022556617200,1.9756171875,-2.35462602109313,1.2613988224655388,0.7151433889396488
1700007022566562000,1.98556201171875,-1.8494237518370151,1.6490502325743437,0.6700723673306405
1700007022576507400,1.99550732421875,-1.29752651303187,1.7900082707941531,0.5563532318333163
1700007022586453200,2.005453369140625,-0.7320470313370228,1.6728806054949759,0.5161820380298421
1700007022596398000,2.015398193359375,-0.4235656040549278,1.4075772256821393,0.4139714809533208
1700007022606343200,2.02534326171875,-0.3125694272480905,1.0344634594917297,0.25523732835054397
1700007022616288300,2.035288330078125,-0.21393252740725874,0.61692544516325,0.14093535146396607
1700007022626233300,2.0452333984375,-0.07327449504733086,0.2704302213072777,0.09833729583974928
1700007022636179200,2.05517919921875,0.045950288661569354,-0.015755203014612196,0.04318999363537877
1700007022646124000,2.0651240234375,0.18344503468498585,-0.2694669292330742,0.026660664443112908
1700007022656069400,2.0750693359375,0.3714893798589706,-0.41063247272372244,0.015852781637571752
1700007022666014200,2.08501416015625,0.4671392267130315,-0.43459903924465176,-0.0407557887583971
1700007022675959000,2.094958984375,0.6066261694669723,-0.33372985030710695,-0.02602229347433895
1700007022685904400,2.104904296875,0.6561959637999534,-0.1425631353288889,-0.02981887274570763
1700007022695850200,2.114850341796875,0.5273053069274872,0.042428105884790415,0.015206008166633546
1700007022705795300,2.12479541015625,0.40593993099331854,0.2395329787403345,0.03659202014245093
1700007022715740200,2.134740234375,0.35021738618426024,0.4375163879960775,0.18121256292518229
1700007022725685000,2.14468505859375,0.2668574043218046,0.7046750402867794,0.33643560213446616
1700007022735630300,2.15463037109375,0.17243278841376303,0.9724591309994458,0.33181418941151347
1700007022745576200,2.164576171875,0.1383810273386538,1.2173854932159185,0.3014094796018675
1700007022755521300,2.174521240234375,0.07871288670897483,1.4062678966492415,0.3951709919586777
1700007022765466000,2.184466064453125,0.05933350184783339,1.5162567961096762,0.361923459938541
1700007022775411200,2.1944111328125,0.0548388207770884,1.586725001564622,0.3368018050983548
1700007022785356300,2.204356201171875,0.021378303593397138,1.6937953832298516,0.40445224971883
1700007022795302100,2.21430224609375,0.010147446135431528,1.7695745545744894,0.4416767225459218
1700007022805247200,2.224247314453125,0.0911984204031527,1.826919074562192,0.5241879055593163
1700007022815192300,2.2341923828125,0.21922741894498465,1.7873674008965492,0.5675344049306587
1700007022825137200,2.24413720703125,0.375463982578367,1.6665794595241545,0.5570503107193857
1700007022835082200,2.254082275390625,0.5188941100001335,1.5407967786043881,0.5514040119281038
1700007022845027300,2.26402734375,0.6192109257519245,1.4092629868119955,0.4949573540955782
1700007022854973400,2.273973388671875,0.5913128650009631,1.3040963929414748,0.5671564019311219
1700007022864918300,2.283918212890625,0.24024434188008306,1.2723247056275606,0.7355581812631339
1700007022874863000,2.293863037109375,0.14490414549708366,1.0792553718984126,0.8203381129261106
1700007022884808200,2.30380810546875,0.5950315932631492,0.9323264425754546,0.8157336148053407
1700007022894753300,2.313753173828125,0.6954243237953632,1.0256067838191985,0.8487242494549602
1700007022904699400,2.323699462890625,0.4713011686980724,1.072876484516263,0.9830692992758006
1700007022914644200,2.333644287109375,0.31061025600433345,1.0357172589451074,0.9256604818802326
1700007022924589000,2.343589111328125,0.2847018347006291,0.8345411911278963,0.6962692501869052
1700007022934534400,2.353534423828125,0.44493214414529497,0.4930173259437084,0.4167626460418105
1700007022944479200,2.363479248046875,0.7603507502794266,0.06080488957464695,0.34090379705708473
1700007022954424000,2.373424072265625,1.0253121117215602,-0.40223055508136746,0.39033688633311536
1700007022964370200,2.3833701171875,1.2471207062661647,-0.881124078604579,0.47028322382718324
1700007022974315300,2.393315185546875,1.3083341766417025,-1.3083406063824892,0.5152556073673069
1700007022984260400,2.40326025390625,1.2675897860601544,-1.6868185299545526,0.5836853657972068
1700007022994205200,2.413205078125,1.1325239476840943,-2.0384031859040257,0.5607841634854674
1700007023004150300,2.423150390625,0.889628287577629,-2.167308382758498,0.46297713859751816
1700007023014096400,2.433096435546875,0.6722634476341307,-2.1278063934534788,0.20729749157326294
1700007023024041200,2.443041259765625,0.5762332962255925,-1.9764386049002407,-0.0788159452246502
1700007023033986300,2.452986328125,0.5906431490458548,-1.9180133039385079,-0.23722537765139712
1700007023043931100,2.46293115234375,0.48722486014738675,-1.763299712088704,-0.11458360683955252
1700007023053876200,2.472876220703125,0.34091289367899297,-1.5736246969729661,0.23777851802213115
1700007023063821300,2.4828212890625,0.06684709234833718,-1.5257751505613326,0.4151694585662335
1700007023073767200,2.49276708984375,-0.34485395945496855,-1.6202607759416103,0.40646052080132067
1700007023083712300,2.502712158203125,-0.5266306956015527,-1.7776444637835025,0.16627941688317804
1700007023093657300,2.5126572265625,-0.5264486900981515,-1.745184794205427,0.16332281383359804
1700007023103602200,2.522602294921875,-0.5241197356939316,-1.7209446714401244,0.2947641963684931
1700007023113547300,2.53254736328125,-0.7817103491723537,-1.8892969125419854,0.23522320751613005
1700007023123493000,2.5424931640625,-1.041300027513504,-1.9928730223506688,0.17320669539570807
1700007023133438200,2.552438232421875,-1.1961539046168326,-2.1322487598150968,0.13074676960054785
1700007023143383300,2.56238330078125,-0.9970550814650952,-2.12039991658926,0.2537473455211148
1700007023153328000,2.572328125,-1.19475558212623,-1.7661130159437655,0.29602382277445866
1700007023163273200,2.582273193359375,-1.5668388362251222,-1.202539221739769,0.09693798696845769
1700007023173219300,2.59221923828125,-1.9594635047018527,-0.5005114810913801,-0.21993812449760733
1700007023183164200,2.6021640625,-2.1537680793143807,0.1142027177631855,-0.4889849286224693
1700007023193109200,2.612109130859375,-1.9948167037643492,0.509478631401062,-0.7164636046927422
1700007023203054000,2.62205419921875,-1.60593765155673,0.7484311799049377,-0.8668937470696866
1700007023212999200,2.631999267578125,-1.216335253510624,0.8070522956997156,-0.9322811421290039
1700007023222944300,2.6419443359375,-1.069929909670353,0.7221072366029023,-0.9545582211930305
1700007023232890000,2.65189013671875,-1.012813937741518,0.6282979030489921,-0.9817333014316856
1700007023242835200,2.661835205078125,-0.903155293148756,0.6410609385102987,-0.9898241072982549
1700007023252780500,2.671780517578125,-0.8496176180981099,0.6573539016634226,-0.9665416505839675
1700007023262725400,2.681725341796875,-0.7140051786899566,0.6305208397954702,-0.8938116376768797
1700007023272670200,2.691670166015625,-0.5821883321724832,0.6895154650777578,-0.7924627754636109
1700007023282616300,2.7016162109375,-0.49830827195867894,0.7583733127266168,-0.6847327608458698
1700007023292561400,2.7115615234375,-0.5152502005398273,0.9607640170305967,-0.5989641104064881
1700007023302506500,2.721506591796875,-0.7668788368739188,1.2914525999456643,-0.5331119473796337
1700007023312451300,2.731451416015625,-0.8020892664648592,1.4920546672672033,-0.42271819344535466
1700007023322396200,2.741396240234375,-0.5520084440946579,1.7347288666427134,-0.4414047737367451
1700007023332341500,2.751341552734375,-0.37937808728218075,1.9532950451999902,-0.4835734980329871
1700007023342287400,2.761287353515625,-0.13028423012271523,1.8829706321299076,-0.2670527259645052
1700007023352232400,2.771232421875,-0.22100758036002516,1.7561328891992567,-0.03602176424013451
1700007023362177300,2.78117724609375,-0.45972412815093994,1.6276204910546541,0.09662557828472927
1700007023372122400,2.791122314453125,-0.3340191886425018,1.395783327513933,0.19288698116587474
1700007023382067500,2.8010673828125,-0.04923091776743531,1.0623059906631707,0.3980317516846582
1700007023392013300,2.811013427734375,0.15246654357537626,0.7430991712272167,0.6517592234615236
1700007023401958400,2.82095849609375,0.22983502993807195,0.4063426665753126,0.7182817600306123
1700007023411903500,2.830903564453125,0.2646012228928506,0.07404664846360683,0.705793303726986
1700007023421848300,2.840848388671875,0.23828034833073614,-0.09805588508248328,0.6419174822743982
1700007023431793400,2.85079345703125,0.18611746876463292,-0.12606558951437472,0.5569569333475083
1700007023441738200,2.86073828125,0.25137948387861253,-0.0973106196731329,0.3806055467179045
1700007023451684400,2.870684326171875,0.40854105340242386,0.04412263484299182,0.06818827325764577
1700007023461629400,2.88062939453125,0.5605084152840077,0.19553835419118404,-0.2148052551211789
1700007023471574300,2.89057421875,0.6688799426756799,0.3549228604614734,-0.40300687321610745
1700007023481519400,2.900519287109375,0.7066119996987282,0.5325187307268381,-0.5337894082497805
1700007023491464400,2.91046435546875,0.6027481589898467,0.6855635125815868,-0.6081318247895687
1700007023501410300,2.920410400390625,0.478733949047327,0.8161047862052917,-0.5720736192628741
1700007023511355400,2.93035546875,0.29348858694210644,0.9190905289053917,-0.5117958953674883
1700007023521300200,2.94030029296875,0.038355157357454296,1.0068868857800959,-0.4078542401820421
1700007023531245300,2.950245361328125,-0.08774827994927764,1.1172837815195322,-0.32149785298258066
1700007023541190400,2.9601904296875,-0.006557166558504105,1.1430407385885715,-0.3662518810642883
1700007023551136300,2.97013623046875,0.10550137878283858,1.0859732819765806,-0.40878198601882904
1700007023561081300,2.980081298828125,0.2317195285104215,0.9736591544389724,-0.30057025229874995
1700007023571026400,2.9900263671875,0.4002675844453275,0.7426870832949877,-0.13331276589734478
1700007023580971300,2.99997119140625,0.47947746089100834,0.42914778810143467,-0.04955363778262399
1700007023590916400,3.009916259765625,0.46970542393922804,0.12469722377061843,-0.006703370096161961
1700007023600861200,3.019861083984375,0.4971427353106439,-0.16078618976175785,-0.023204514373559502
1700007023610807300,3.029807373046875,0.5446797086417675,-0.33938509958982466,-0.07194626038456335
1700007023620752400,3.03975244140625,0.6326769949160516,-0.41696985905170436,-0.04473651069132611
1700007023630697200,3.049697265625,0.7283551910817623,-0.4134264873564243,-0.04960969708510674
1700007023640642300,3.059642333984375,0.715689624645561,-0.4277221392124891,-0.2255404745493084
1700007023650587400,3.06958740234375,0.6324490313790738,-0.6510036558538675,-0.3503900393374264
1700007023660533500,3.079533447265625,0.7434522224485873,-1.0347861155748366,-0.3057538654817268
1700007023670478300,3.089478271484375,0.9610966099858284,-1.5406138232529163,-0.1757490916212089
1700007023680423200,3.099423095703125,1.4562509479582308,-2.0980764411002397,0.06302118195120711
1700007023690368500,3.109368408203125,1.7220035328432917,-2.545646605598926,0.23518724115360526
1700007023700313300,3.119313232421875,1.292135906034708,-2.8713176526129245,0.13935619251374154
1700007023710258200,3.129258056640625,0.6105997492730617,-3.0428993771553037,0.08488053336008451
1700007023720204300,3.139204345703125,0.2840821684323251,-3.10855462937057,0.08472558939354494
1700007023730149400,3.1491494140625,0.22554157052785156,-2.947370964723825,0.11970462138140574
1700007023740094500,3.159094482421875,-0.24723726950734853,-2.5487638608366248,0.12171460949694737
1700007023750039300,3.169039306640625,-0.5066229497089981,-2.2234762601822613,0.17369223215663804
1700007023759984000,3.178984130859375,-0.4907938046753406,-1.7925176232665776,0.2651302700019441
1700007023769930200,3.18893017578125,-0.5497893067404628,-1.225006489613652,0.4824185193115845
1700007023779875300,3.198875244140625,-0.6734250387594103,-0.7546078227132559,0.8314387681331485
1700007023789820400,3.2088203125,-0.8252151443779469,-0.34343116011023517,1.0076076743353157
1700007023799765200,3.21876513671875,-1.3888064742386341,0.11216273636817932,1.0657692828595637
1700007023809710300,3.22871044921875,-1.87462950476408,0.5641051246017217,1.1583012168888003
1700007023819655400,3.238655517578125,-2.033563344657421,1.0040238975644111,1.292283936203271
1700007023829601300,3.248601318359375,-1.8923329192370175,1.16790396168828,1.4095039559610187
1700007023839546400,3.25854638671875,-1.6030562509015203,1.0867068569481373,1.482473330581933
1700007023849491500,3.268491455078125,-1.4039721869274973,0.8587316295325755,1.6015480382956564
1700007023859436300,3.278436279296875,-1.2923285059973597,0.5897831712156534,1.662811046901345
1700007023869381400,3.28838134765625,-1.2033072835028171,0.35854455808997154,1.6278573685504496
1700007023879327200,3.2983271484375,-1.1871519752547144,0.12938450480401514,1.5215063872009515
1700007023889272600,3.3082724609375,-1.1589008632823825,-0.12249649885594845,1.3594900711223483
1700007023899217400,3.318217529296875,-1.1401064387023447,-0.3540016539633274,1.1337789892464876
1700007023909162200,3.328162353515625,-0.9960136095881461,-0.5707938085854053,0.961586877720803
1700007023919107300,3.338107421875,-0.9076471977405249,-0.655752896207571,0.875158229002729
1700007023929053200,3.34805322265625,-0.8203064756788313,-0.5888350767105818,0.8725107101686298
1700007023938998500,3.35799853515625,-0.7399974058195948,-0.4532727600544691,0.780825309966132
1700007023948943400,3.367943359375,-0.9979159360781311,-0.23684710065722464,0.7103526475317776
1700007023958888200,3.37788818359375,-1.0609719655804335,-0.009138415223360062,0.7073332997106015
1700007023968833500,3.38783349609375,-0.8400348201081156,0.1963800657123327,0.7550212988849729
1700007023978778400,3.3977783203125,-0.7598936541616916,0.356865226700902,0.7069031646650284
1700007023988724200,3.40772412109375,-0.7979168030858039,0.5494406394332647,0.7278830435253679
1700007023998669300,3.41766943359375,-0.8985131664313375,0.7752911297798156,0.8305359010092913
1700007024008614400,3.427614501953125,-0.6934243090845644,0.9342641326397657,0.8304223576322197
1700007024018559500,3.4375595703125,-0.4857198624119162,1.0228191989272832,0.783630795840919
1700007024028504300,3.44750439453125,-0.3661667235314846,1.0907581781655549,0.7331643449291586
1700007024038450200,3.4574501953125,-0.28559169621244074,1.1338444556981324,0.5930861582837998
1700007024048395500,3.4673955078125,-0.35182021827101706,1.14822837035954,0.5102282076593488
1700007024058340400,3.47734033203125,-0.41752530097737905,1.1827590009927749,0.4906498661600053
1700007024068285400,3.487285400390625,-0.44975481506139037,1.2031716744244099,0.506546633069776
1700007024078230300,3.497230224609375,-0.426159419940412,1.1538351043254136,0.5377995572065934
1700007024088175400,3.50717529296875,-0.2621560216978192,1.079657522958517,0.5406069427775219
1700007024098121500,3.51712158203125,-0.06350728040114045,1.0477145707309246,0.5286973458077758
1700007024108066300,3.52706640625,0.1395212834149599,0.9999252300739288,0.5297558784173801
1700007024118011100,3.53701123046875,0.2831085010945797,0.9772808520674705,0.5322610296387225
1700007024127956500,3.54695654296875,0.3625125849381089,1.037454458001256,0.5780010365504771
1700007024137901300,3.5569013671875,0.35954525956511496,1.034813588103652,0.6351024684973061
1700007024147847400,3.566847412109375,0.525057016544044,0.9464192653357982,0.6585380699466914
1700007024157792300,3.576792236328125,0.7774069528900086,0.8736299234569073,0.7907517337620258
1700007024167737300,3.5867373046875,0.7631188998185098,0.9116729461252688,1.0785204817526042
1700007024177682400,3.596682373046875,0.24900135657042263,0.9622773442029953,1.4066672712303698
1700007024187627300,3.606627197265625,-0.0443850851714611,0.7791805384337902,1.7203499204173682
1700007024197573400,3.616573486328125,0.205642984098196,0.548227756512165,1.8723719350956378
1700007024207518500,3.6265185546875,0.1356672383353114,0.3936714010506868,1.9845400782912967
1700007024217463300,3.63646337890625,-0.1900812578290701,0.06794716254472732,2.02638483133018
1700007024227408400,3.646408447265625,-0.11696019977778195,-0.346534971344471,2.055025088750571
1700007024237353500,3.656353515625,-0.023519991797208786,-0.6521130784004926,2.0260342643268405
1700007024247298600,3.666298583984375,0.08573416364789009,-1.0081389316678047,1.9055523201636968
1700007024257244700,3.67624462890625,0.21807839504033324,-1.2801473620772361,1.735150160794705
1700007024267189500,3.686189453125,0.30751258224993944,-1.3471394158542156,1.5410400858409703
1700007024277134300,3.69613427734375,0.14396145781949163,-1.2630161945343017,1.3357431387014687
1700007024287079700,3.70607958984375,-0.08881488626748323,-1.1770943993598222,1.0913939187858253
1700007024297024500,3.7160244140625,-0.04958353059738874,-1.1563625769764185,0.9172975080087781
1700007024306970400,3.725970458984375,0.22578239354640245,-1.37499422198534,0.6906696035489439
1700007024316915500,3.73591552734375,0.5723150268033147,-1.71451843778491,0.4273765406452119
1700007024326860500,3.745860595703125,0.7060171025454998,-1.7630173880159854,0.5115094431089237
1700007024336805600,3.7558056640625,0.694548783069849,-1.8590338762253522,0.5840750957671552
1700007024346750500,3.76575048828125,0.4912658061012625,-2.1240976020634172,0.4555549527075141
1700007024356695300,3.7756953125,0.33522534956187006,-2.247282083183527,0.5233658485867083
1700007024366641400,3.785641357421875,0.3410945338562131,-2.1220827551096675,0.7818800797160714
1700007024376586500,3.79558642578125,0.20492548347860573,-1.9385697697550057,0.9791749952509998
1700007024386531300,3.80553125,-0.20774930872768163,-1.7106652694880962,1.0225238692425191
1700007024396476400,3.815476318359375,-0.6198658825293183,-1.448583774331212,1.0353208069734274
1700007024406421500,3.82542138671875,-0.7827464142218231,-1.0987801565796136,1.0487690482199192
1700007024416367600,3.83536767578125,-0.8448732000499963,-0.7288450204253196,1.0268864483661948
1700007024426312400,3.8453125,-0.9977896793499589,-0.32794366812109943,0.9250438843518495
1700007024436257300,3.85525732421875,-1.1976257307350635,0.06266366918385029,0.8257350765988231
1700007024446202600,3.86520263671875,-1.4047183291196823,0.4572106840252876,0.7674208347961307
1700007024456147500,3.8751474609375,-1.6523770389094947,0.7703133413672447,0.6127877973692492
1700007024466093600,3.885093505859375,-1.7540987530231475,0.9496978486150502,0.40256044462285934
1700007024476038400,3.895038330078125,-1.677817185114324,0.9832429753422737,0.32853505814298983
1700007024485983500,3.9049833984375,-1.534183790205419,0.9287772256612777,0.22278255414329468
1700007024495928600,3.914928466796875,-1.4402967152401804,0.8353712122112512,0.06508782759085298
1700007024505873400,3.924873291015625,-1.3618234825059772,0.6100093821644783,-0.07152476530317217
1700007024515818200,3.934818359375,-1.3558806484535335,0.34822073247432705,-0.11693813407644629
1700007024525764400,3.944764404296875,-1.3083759699568152,0.13276011871695517,-0.0536169142993167
1700007024535709400,3.95470947265625,-1.2494018029406666,-0.03263619518876076,0.18177425192855298
1700007024545654500,3.964654541015625,-1.2464748095780611,-0.18604279609322547,0.28015845564994957
1700007024555599400,3.974599365234375,-1.1480036216929554,-0.3104553577035665,0.3636274508448317
1700007024565544400,3.98454443359375,-1.0237494655147195,-0.4333113375216722,0.4175695419779047
1700007024575490600,3.994490478515625,-0.8753343892872333,-0.5317483308762312,0.3845874559609219
1700007024585435400,4.004435302734375,-0.7049354447886348,-0.5418184739917516,0.3668755293879658
1700007024595380500,4.01438037109375,-0.4982821146041155,-0.5606406633615494,0.3446213562754914
1700007024605325600,4.02432568359375,-0.33111937554776666,-0.4861281509518623,0.3383678853712976
1700007024615270400,4.0342705078125,-0.6275798179075122,-0.27415128765702246,0.34335886205900457
1700007024625215500,4.044215576171875,-0.7859142306029796,-0.23577917916476726,0.3313623905234039
1700007024635161300,4.054161376953125,-0.3224202285245061,-0.1565706178933382,0.34025410097669806
1700007024645106400,4.0641064453125,-0.0139817636013031,0.034085224953293795,0.2583031821945682
1700007024655051500,4.074051513671875,-0.09608984570652246,0.1274175886452198,0.259837040698342
1700007024664996400,4.083996337890625,-0.15535919627696274,0.1769394521832466,0.34961331934388723
1700007024674941400,4.09394140625,-0.10567103626132011,0.22639409570395946,0.47516091286614537
1700007024684887300,4.10388720703125,-0.08645750948637723,0.256041045948863,0.4783667231701314
1700007024694832600,4.11383251953125,-0.06242196938246488,0.258467396312952,0.4327129332371056
1700007024704777500,4.123777587890625,0.02119447145909071,0.28933599730730053,0.40753918288350105
1700007024714722300,4.133722412109375,0.13522183265537022,0.35348026043772696,0.37173940909728403
1700007024724667600,4.143667724609375,0.18305939636826515,0.396494641777873,0.34337566706333306
1700007024734613500,4.153613525390625,0.15624474693983792,0.3810112414419651,0.30093992586135865
1700007024744558600,4.16355859375,0.10236848758459091,0.3744125738292932,0.31898934076037255
1700007024754503400,4.17350341796875,0.02096358531266451,0.4099497511565685,0.3553741113603115
1700007024764448500,4.183448486328125,-0.018613515055179594,0.5164414561510086,0.42038423407245423
1700007024774393600,4.1933935546875,-0.021827216404676435,0.6106605395495891,0.5705496245659888
1700007024784338400,4.20333837890625,-0.05184826065897941,0.6787351278662681,0.6384502445552498
1700007024794284500,4.213284423828125,-0.01991349173784256,0.733150608664751,0.5899004409197718
1700007024804229400,4.2232294921875,0.014444997198879718,0.8224556165367365,0.5558688823824748
1700007024814174500,4.233174560546875,0.005755494786798954,0.8935480913698672,0.5261843400735408
1700007024824119600,4.24311962890625,-0.011118483124673366,0.9263397693812847,0.5454446651322766
1700007024834064400,4.253064453125,0.10058189642876386,0.9163152189731597,0.5142694824067875
1700007024844010200,4.26301025390625,0.08343465453386306,0.9151210407525301,0.3641348158450797
1700007024853955600,4.27295556640625,0.026793022118508814,0.8149263900756836,0.26953977527357637
1700007024863900400,4.282900390625,-0.011547814452648162,0.676364891603589,0.22448610665816812
1700007024873845500,4.292845458984375,0.019622399836778638,0.5495633890300989,0.1882673402749002
1700007024883790600,4.30279052734375,0.09216478121727704,0.3859288240998983,0.1951779781798832
1700007024893735400,4.3127353515625,0.1248468613743782,0.21715163558423517,0.2555325849700719
1700007024903681500,4.322681640625,0.15910802741646765,0.033060558080673215,0.26545477098226544
1700007024913626400,4.33262646484375,0.22841215752810237,-0.12485621372461318,0.26144071303531524
1700007024923571700,4.34257177734375,0.31555180405974387,-0.24883272200524806,0.24288541270708663
1700007024933516500,4.3525166015625,0.4525635888718068,-0.2954594486236572,0.20364556320328264
1700007024943461400,4.36246142578125,0.4923009943678975,-0.3439244965851307,0.14572776423911563
1700007024953407500,4.372407470703125,0.5427452334478498,-0.38889059651494023,0.10852868158160708
1700007024963352300,4.382352294921875,0.5498144411817193,-0.41241877161860463,0.06659460629145614
1700007024973297400,4.39229736328125,0.49429187592417,-0.4692664480000734,0.0994587376177311
1700007024983242500,4.402242431640625,0.47935997199118136,-0.5300047020792961,0.2897609264547936
1700007024993187300,4.412187255859375,0.560486641843617,-0.5571124892354011,0.40594756631050255
1700007025003133400,4.422133544921875,0.7537377618804574,-0.7506529476076365,0.37446755541954185
1700007025013078500,4.43207861328125,0.9138520437300205,-1.0919529409080744,0.3637399347759783
1700007025023023400,4.4420234375,0.8853916729211807,-1.3889140262663364,0.42156770823597906
1700007025032968400,4.451968505859375,0.7220595980688929,-1.471424551692605,0.5495642658129334
1700007025042913500,4.46191357421875,0.4864075524151325,-1.439350082039833,0.6931623702127486
1700007025052858600,4.471858642578125,0.10029781879037618,-1.3631184907525777,0.7810328152369708
1700007025062804500,4.481804443359375,-0.4745286063119769,-1.2072627431303262,0.9213299783952533
1700007025072749300,4.491749267578125,-0.4272416622191667,-1.2434282814890145,1.0910640292443334
1700007025082694700,4.501694580078125,0.20535510706752538,-1.3899801941931247,1.1838668161042034
1700007025092639500,4.511639404296875,0.417125341874361,-1.4439590371400117,1.2031487319402396
1700007025102584300,4.521584228515625,0.11908259875923395,-1.452155203077197,1.3732102611780166
1700007025112530400,4.531530517578125,-0.2619432557299733,-1.3338304369479417,1.6292093676812947
1700007025122475300,4.541475341796875,-0.5044181331411004,-1.081940080937743,1.8606247986786066
1700007025132420600,4.551420654296875,-0.6014470132634043,-0.755435505709052,1.9852837362654505
1700007025142365400,4.561365478515625,-0.7636424853011965,-0.3151099055111408,2.008040342474729
1700007025152310300,4.571310302734375,-0.8656529532283544,0.17322540009617804,2.0295453411877156
1700007025162256400,4.58125634765625,-0.9792901460632681,0.5761906991928816,2.011417125431448
1700007025172201500,4.591201416015625,-1.2659050478436051,0.9036527212768792,1.9308704474240541
1700007025182146600,4.601146484375,-1.5435858248010277,1.1248463257282972,1.8944591176107524
1700007025192091400,4.61109130859375,-1.5183752495683729,1.1696855844080447,1.9943145994611082
1700007025202036500,4.621036376953125,-1.2246728737451136,0.9766185887664556,2.1129322110570965
1700007025211981600,4.630981689453125,-0.9191377290479839,0.6506359915852546,2.1411589192405343
1700007025221927400,4.640927490234375,-0.7731593784481287,0.31831951520740986,1.947465316133201
1700007025231872500,4.65087255859375,-0.7632384345449507,0.1010749406427145,1.765668194785714
1700007025241817600,4.660817626953125,-0.7862710812166332,-0.1682598866432905,1.532656142246723
1700007025251762700,4.6707626953125,-0.938670550905168,-0.3991536318540573,1.3703306140884757
1700007025261707500,4.68070751953125,-1.1571180715188383,-0.48177287835180754,1.3766015110515057
1700007025271653600,4.690653564453125,-1.0302983026362955,-0.5764280150800943,1.3645605062544346
1700007025281598500,4.700598388671875,-0.8657853474363684,-0.65439329829216,1.2038609718628226
1700007025291543600,4.71054345703125,-0.8016938374064863,-0.6583405746132135,0.995395623820275
1700007025301488600,4.720488525390625,-0.7328944419465958,-0.5500123018413782,0.838055702054873
1700007025311433500,4.73043359375,-0.6876501095972954,-0.3519008822917938,0.7384668352514505
1700007025321378800,4.74037890625,-0.6450817184589803,-0.1286935999304056,0.6415433882649988
1700007025331324700,4.75032470703125,-0.622948212584108,0.11486673462986946,0.5897574522525072
1700007025341269500,4.76026953125,-0.535097202912718,0.3985077351659536,0.6279371799778193
1700007025351214600,4.770214599609375,-0.45683907423391934,0.6065186174392699,0.6501300878897309
1700007025361159700,4.78015966796875,-0.46826150874122974,0.7158622047334909,0.6824402659945189
1700007025371104500,4.7901044921875,-0.3863736452579498,0.829375771188736,0.7054577881623059
1700007025381050600,4.800050537109375,-0.2561468444108963,0.930309842056036,0.7447347365397959
1700007025390995500,4.809995361328125,-0.145909669277817,0.9126888451695442,0.7462793356332927
1700007025400940500,4.8199404296875,-0.10388707545399666,0.8189175055384635,0.753667984579876
1700007025410885600,4.8298857421875,-0.12303732773438095,0.6871405526399612,0.8530418203931301
1700007025420830500,4.83983056640625,-0.1512495690010488,0.4914052145719528,0.953380774911493
1700007025430776600,4.849776611328125,-0.16024433797001839,0.2534054367482662,1.0292613608039916
1700007025440721400,4.859721435546875,-0.09103227005600929,-0.06722352444529534,1.109258880496025
1700007025450666800,4.869666748046875,-0.0699789606332779,-0.2028074684113264,1.2380715767614543
1700007025460611600,4.879611572265625,-0.02561374920606613,-0.23873043018579482,1.2260956000246106
1700007025470556400,4.889556396484375,0.08953720919266342,-0.20209493622779845,1.246739597994089
1700007025480501800,4.899501708984375,0.2784030998826027,-0.10804010348021983,1.2337848393529653
1700007025490447600,4.909447509765625,0.34883813372030853,-0.033759061738848684,1.1496412328321486
1700007025500392700,4.919392822265625,0.3107413350380957,0.09120821114480494,1.1421806146278977
1700007025510337500,4.929337646484375,-0.10834463938474655,0.3175847711920738,1.2212895149171352
1700007025520282600,4.93928271484375,-0.4488509980894625,0.38069384605586526,1.2267198694027959
1700007025530227700,4.949227783203125,0.10105345946326852,0.40896483177244664,1.185321618022397
1700007025540173600,4.959173583984375,0.5265525157988071,0.5516729285299777,1.047152552933991
1700007025550118700,4.96911865234375,0.36938393201231956,0.629087007600069,0.8903834898591041
1700007025560063500,4.9790634765625,0.07516483883857726,0.6294318755149841,0.8128234264470636
1700007025570008600,4.989008544921875,0.017495763071626425,0.650862786078453,0.8429165130242705
1700007025579953700,4.99895361328125,0.11715586848035454,0.6255740310430526,0.8920746578164398
1700007025589899500,5.0088994140625,0.21549217793941497,0.5752040262430906,0.9620193508539349
1700007025599844600,5.0188447265625,0.29708675756454467,0.5090028305828571,1.0125010724000632
1700007025609789700,5.028789794921875,0.27555414019227026,0.3452735731065273,1.0919245915964244
1700007025619734500,5.038734619140625,0.2217301955461502,0.16090017153024672,1.1796088663987814
1700007025629679600,5.0486796875,0.2263186923801899,0.000054945057630538935,1.2821638164661824
1700007025639624700,5.058624755859375,0.2826199869252741,-0.1694932278305292,1.3376501413665711
1700007025649570800,5.06857080078125,0.3871066357076168,-0.35552433348596096,1.3662190871164201
1700007025659515600,5.078515625,0.4344143303275108,-0.45440673252046104,1.4119742915973066
1700007025669460500,5.08846044921875,0.34641572887897487,-0.5184036961346864,1.3989704331174493
1700007025679405600,5.098405517578125,0.1478302620768547,-0.5456733958542347,1.3218245034642517
1700007025689350700,5.1083505859375,-0.04335296564474701,-0.5720563758671283,1.2193200414750724
1700007025699296800,5.118296875,-0.07465615866407752,-0.6582908902525901,1.0415827899776398
1700007025709241600,5.12824169921875,-0.0740424106799066,-0.7207447160780429,0.8936163343004881
1700007025719186400,5.1381865234375,0.005670008460432291,-0.6434563092142344,0.7917774966131895
1700007025729131800,5.1481318359375,0.10865209789872168,-0.4440250392377376,0.6875361278288066
1700007025739076600,5.15807666015625,0.05398775690570473,-0.25250001234114167,0.5390688464900478
1700007025749022500,5.1680224609375,0.010120411998033523,-0.1891688191592693,0.3630184155683964
1700007025758967600,5.177967529296875,-0.012058540453761816,-0.11857903315126896,0.303827336132247
1700007025768912600,5.18791259765625,-0.2195464217662811,-0.16875146955251694,0.2972075891989283
1700007025778857700,5.197857666015625,-0.33497882745489477,-0.4515256241261959,0.2121979586996138
1700007025788802600,5.207802490234375,-0.3598958265684545,-0.9358610464423894,0.14954968801429494
1700007025798747600,5.21774755859375,-0.3249323574759066,-1.3734604365468024,0.21320202117562292
1700007025808693800,5.22769384765625,-0.04661240583211183,-1.6754682839006185,0.42224410966020076
1700007025818638600,5.237638671875,0.19864041185975073,-1.768269901716709,0.6654346245273948
1700007025828583400,5.24758349609375,0.2192526995167136,-1.653575601044297,0.7567196272354573
1700007025838528500,5.257528564453125,0.029705110172927377,-1.306360246220231,0.7365900085289031
1700007025848473600,5.2674736328125,-0.17372487405091522,-0.7778302928686142,0.6946812503430992
1700007025858419700,5.277419677734375,-0.28729133973717685,-0.19146248305439947,0.6707477823741733
1700007025868364500,5.287364501953125,-0.4314940589666366,0.45091889040470123,0.6625421179562807
1700007025878309400,5.297309326171875,-0.6297231135465204,1.0323463212072848,0.669528761973232
1700007025888254700,5.307254638671875,-0.8242999292291701,1.5439607955932617,0.6700709060259163
1700007025898199600,5.317199462890625,-0.9124994600772857,1.888999390900135,0.678006229069829
1700007025908145700,5.327145751953125,-0.8883318180263042,1.9946587367236612,0.6567855271909385
1700007025918090500,5.337090576171875,-0.7731354130506515,1.8512363542169332,0.5439580433037132
1700007025928035600,5.34703564453125,-0.5812696098923683,1.532483123767376,0.42823940455224363
1700007025937980700,5.356980712890625,-0.3562637536764145,1.1122872884064912,0.4427153083460405
1700007025947925500,5.366925537109375,-0.20650471549406646,0.6277998903989791,0.45361324405521153
1700007025957870600,5.37687060546875,-0.4116448646366596,0.20201836386024952,0.4851957289399579
1700007025967816700,5.386816650390625,-0.9392214627861976,-0.3223603150308132,0.4285855511087924
1700007025977761500,5.396761474609375,-0.6123495155498385,-0.8577537244111298,0.41742936632223426
1700007025987706600,5.40670654296875,0.10157733720690011,-1.078889461195469,0.26406192838437853
1700007025997651500,5.4166513671875,0.10205503772124648,-1.245083647480607,0.026036577728018165
1700007026007596500,5.426596435546875,-0.3222960176229477,-1.4195955802559852,-0.24989034129939972
1700007026017542700,5.436542724609375,-0.41155484826564787,-1.4837456886053084,-0.528681490651518
1700007026027487500,5.446487548828125,-0.11673252850174903,-1.4628408477425574,-0.710449824295938
1700007026037432600,5.4564326171875,0.1732405976653099,-1.3626461970657109,-0.7260323010921478
1700007026047377700,5.466377685546875,0.3409127475485205,-1.2016256140261887,-0.6753905666787177
1700007026057322500,5.476322509765625,0.3714356038451195,-0.986705683016777,-0.6042929772790521
1700007026067268600,5.4862685546875,0.2082534588575363,-0.7163333293765783,-0.5572171551862731
1700007026077213400,5.49621337890625,0.0773205555677414,-0.42524025926887987,-0.518226439871639
1700007026087158800,5.50615869140625,0.0017468436673283576,-0.14002572580575942,-0.4278837595149874
1700007026097103600,5.516103515625,-0.010033902758359909,0.12836392958462237,-0.2775816274318844
1700007026107048400,5.52604833984375,0.06296119082570076,0.36981121751368046,-0.09260912745129317
1700007026116993800,5.535993896484375,0.13551087872982023,0.5466559771507978,0.014498846277967095
1700007026126939600,5.545939697265625,0.13428718215376137,0.6834674170851707,0.06965524510424584
1700007026136884700,5.555884765625,0.11660218012034892,0.7814385464936494,0.12320110346134751
1700007026146829600,5.56582958984375,0.12318243529349565,0.8192050903081893,0.15000501230005173
1700007026156774400,5.5757744140625,0.05599602798819542,0.8361188157081604,0.08654537043292075
1700007026166719700,5.5857197265625,-0.028770167410373686,0.8046984260499477,-0.05549242584761232
1700007026176665600,5.59566552734375,0.12466098341345787,0.7221376317411661,-0.07919972037784755
1700007026186610700,5.605610595703125,0.13474720088094472,0.598273351663351,-0.0720373179351911
1700007026196555500,5.615555419921875,0.04702741637378931,0.42887306281328197,-0.03982248996365815
1700007026206500600,5.62550048828125,-0.03210428026914596,0.26120588136613365,0.016462218772806226
1700007026216446700,5.63544677734375,-0.09771350138559937,0.09743453831374645,0.07932046068068593
1700007026226391600,5.6453916015625,-0.10725625962615012,-0.03293897752761841,0.11229903956633061
1700007026236336600,5.655336669921875,-0.14146511095911263,-0.12686463093757627,0.06409655153118074
1700007026246281700,5.66528173828125,-0.21933716292977332,-0.21002631374895572,-0.008826463197357953
1700007026256226800,5.675226806640625,-0.27725042271614075,-0.25425357801020143,-0.03801715757474303
1700007026266171600,5.685171630859375,-0.323229791341722,-0.23736907870471477,-0.03528378708809614
1700007026276117800,5.69511767578125,-0.27601094404906035,-0.14204174180328846,-0.0026490166714414954
1700007026286062600,5.7050625,-0.23806612105816602,-0.01391162097454071,-0.0019213965166360138
1700007026296007700,5.715007568359375,-0.20434943715631962,0.09476502684354782,-0.04895652127284556
1700007026305952800,5.724952880859375,-0.17979352644011376,0.09124035984873771,-0.17568393569681792
1700007026315897600,5.734897705078125,-0.17323752892538904,0.11174421869516372,-0.2620633384456858
1700007026325843700,5.74484375,-0.13739888443350792,0.24804537101984023,-0.1682315007990226
1700007026335788800,5.754788818359375,-0.08028641963601112,0.40160920831263064,-0.11125921165719628
1700007026345733600,5.764733642578125,-0.06515051756352186,0.5212140773802996,-0.19640125463083385
1700007026355678700,5.7746787109375,-0.03217690711393952,0.5998457155466079,-0.2986066606082022
1700007026365623800,5.784623779296875,0.03527808799967169,0.5532984839051962,-0.3553038591356948
1700007026375568600,5.794568603515625,0.1260229194164276,0.32215397880375385,-0.414584973209165
1700007026385514800,5.8045146484375,0.2601779996231198,-0.03777063546776771,-0.43346685687694697
1700007026395459600,5.81445947265625,0.36858693641573187,-0.4353729462265968,-0.2537184847528115
1700007026405405000,5.824405029296875,0.3930374870613217,-0.7788099515557289,-0.01481233267392963
1700007026415349800,5.834349853515625,-0.16922025610804556,-0.9436106376558542,0.1587646208062768
1700007026425294600,5.844294677734375,-0.4427835147440433,-1.182579552772641,0.29475882607363163
1700007026435240700,5.85424072265625,0.21923224125057458,-1.1656395238876343,0.4170250963702798
1700007026445185500,5.864185546875,0.504357342864573,-0.7957394590467214,0.28349128986708816
1700007026455131000,5.874130859375,0.030226649829000234,-0.530178305080533,0.13188848698157815
1700007026465075700,5.88407568359375,-0.17230536264181137,-0.28980829099416733,0.0017060002002865075
1700007026475020500,5.8940205078125,-0.013283552204072475,-0.014819383469223976,-0.06588617489431053
1700007026484966700,5.903966552734375,0.04651420615464449,0.17529986828267574,0.03033653994426131
1700007026494911700,5.913911865234375,0.10254033702015876,0.25977263369262216,0.17817268377263099
1700007026504856800,5.92385693359375,0.16967910579144954,0.25416531520485874,0.2994088438365608
1700007026514801700,5.9338017578125,0.026366321139037606,0.2165618529975414,0.40462504900246854
1700007026524746800,5.943746826171875,-0.14470087800994513,0.23748247595131397,0.5405390286404639
1700007026534691800,5.95369189453125,-0.2649476982429623,0.33534546881020066,0.6618089813761413
1700007026544637700,5.9636376953125,-0.39489831249713897,0.4362368695795536,0.7335426767222583
1700007026554582800,5.973582763671875,-0.5113889950670302,0.5246697707921266,0.747974156852439
1700007026564527900,5.98352783203125,-0.5179015918314457,0.5361982960224151,0.7300666711747645
1700007026574472700,5.99347265625,-0.48719724148809906,0.4678606728553772,0.7923308196470141
1700007026584417800,6.003417724609375,-0.42501667964607476,0.31888708596229554,0.8478614220805466
1700007026594363600,6.01336376953125,-0.27127207895889877,0.17287234887480735,0.9331937269292772
1700007026604308500,6.02330859375,-0.22175138446465134,0.04714695110023021,1.0221012599162758
1700007026614253800,6.03325390625,-0.29109774628281593,-0.0847661953985691,1.043498341275379
1700007026624198700,6.04319873046875,-0.15246318257451055,-0.21163784059882162,0.9593788462825119
1700007026634143700,6.053143798828125,0.04794511574059725,-0.310478738579154,0.8029869459569454
1700007026644089600,6.063089599609375,0.11346505113840102,-0.3991279128909111,0.6895513401087373
1700007026654034700,6.07303466796875,0.13696867632269857,-0.3798462893158197,0.6112271969890222
1700007026663979800,6.082979736328125,0.15653028588294982,-0.2957178072988987,0.4967902686111629
1700007026673924600,6.092924560546875,0.22666560612171888,-0.17688626069128513,0.32788879612870514
1700007026683870000,6.102869873046875,0.2460731941640377,-0.08640694834291934,0.15730079533141106
1700007026693815800,6.11281591796875,0.22377470698580146,-0.004684942945837974,0.05847417247160337
1700007026703760600,6.1227607421875,0.2515653618395328,0.12753449302315711,0.09083583416845649
1700007026713705700,6.132705810546875,0.193992293792963,0.22564532316327093,0.13878344326023942
1700007026723650800,6.14265087890625,0.09452171960696577,0.22500527169406412,0.13143730001482182
1700007026733595600,6.152595703125,0.04526961292102933,0.16430091988444329,0.1312645007311832
1700007026743540700,6.162540771484375,0.03949132178053259,0.0620791472941637,0.14519510040082967
1700007026753486600,6.172486572265625,0.052584465979039666,-0.08437105860114097,0.13523778827632776
1700007026763431700,6.182431640625,0.05863061427548527,-0.22184651540219782,0.12162120472560636
1700007026773376800,6.192376708984375,0.11608633955270051,-0.30238486397266384,0.12898540421752258
1700007026783321600,6.202321533203125,0.19509031816273928,-0.27128537683188914,0.061311980580259114
1700007026793266700,6.2122666015625,0.1958116181746125,-0.13339666305482387,0.006680500677227973
1700007026803212500,6.222212646484375,0.1975263131380081,0.035519641670584676,-0.04921053256653249
1700007026813158000,6.232157958984375,0.14357289689332245,0.16779811435043812,-0.14592682134201748
1700007026823102700,6.242102783203125,0.055417643578350544,0.316651874256134,-0.19889528166996315
1700007026833047600,6.252047607421875,0.017211831563711165,0.49649581570923323,-0.26007563522718846
1700007026842993000,6.261992919921875,0.015329671078920363,0.6426116750836371,-0.28451705271825195
1700007026852938800,6.271938720703125,-0.017081190921366212,0.7119803948640823,-0.241796612823382
1700007026862883800,6.2818837890625,-0.16464461875557898,0.7261246555507183,-0.08851486214129253
1700007026872828700,6.29182861328125,-0.6757321466580033,0.6193260765641927,-0.038458782128710296
1700007026882773800,6.301773681640625,-0.6614347412362694,0.2601063956916332,0.02810063411835581
1700007026892718800,6.31171875,0.0854439485296607,0.010654665005207061,0.18993129143174736
1700007026902663700,6.32166357421875,0.36423780129551886,-0.18419629144370556,0.22247115010656415
1700007026912609800,6.33160986328125,0.07457271816432476,-0.4592570951610803,0.13206804479956627
1700007026922554600,6.3415546875,-0.004807984803617001,-0.6731675568670034,0.01740256836283952
1700007026932499700,6.351499755859375,0.02069587428718805,-0.7434919699370861,0.019353264039196072
1700007026942444800,6.36144482421875,0.09568126490563153,-0.6865268046557903,0.05207819695733487
1700007026952389600,6.3713896484375,0.26406214758008717,-0.5768658219754695,0.061137007605843244
1700007026962335700,6.381335693359375,0.4301578419268131,-0.4609370110720396,-0.01203596329577267
1700007026972280800,6.39128076171875,0.4468970875427127,-0.36705344323813915,-0.12240116698900237
1700007026982225700,6.4012255859375,0.3464925935074687,-0.2772831559419632,-0.18384857398457824
1700007026992170800,6.411170654296875,0.24851532661914824,-0.20762217521667478,-0.19988957167062907
1700007027002115800,6.42111572265625,0.22279227181971073,-0.09621522565186023,-0.1800015797002241
1700007027012062000,6.43106201171875,0.2266772965595126,0.022703999239206313,-0.143123582223244
1700007027022006800,6.4410068359375,0.1842526978060603,0.13747487227916716,-0.12429499964527785
1700007027031951600,6.45095166015625,0.11116904915571212,0.23989947396516798,-0.14959579217834398
1700007027041896700,6.460896728515625,0.05873100591003894,0.33399931489825246,-0.1460382823598571
1700007027051841800,6.470841796875,0.06064326927214861,0.401142175322771,-0.1616607075739652
1700007027061787600,6.48078759765625,0.022547347372770307,0.41056700627207754,-0.18495215131230652
1700007027071732700,6.490732666015625,-0.06035334641486406,0.4313432523190975,-0.18645004345355554
1700007027081677600,6.500677490234375,0.013763152414560317,0.43316579157114027,-0.15736164040686562
1700007027091623000,6.510622802734375,0.06920300782471894,0.40908582780361175,-0.15141612120699136
1700007027101567700,6.520567626953125,0.06674801588803529,0.3323895416140556,-0.1391436274752952
1700007027111512600,6.5305126953125,0.037378713540732855,0.23728607659637926,-0.150027278930787
1700007027121458700,6.540458740234375,0.07915741560608149,0.1584130308896303,-0.16544462829316034
1700007027131403800,6.55040380859375,0.19668138674646615,0.07831248921453952,-0.15348803211022166
1700007027141348900,6.560348876953125,0.28210312344431876,-0.024037878191471098,-0.09826483339173718
1700007027151293700,6.570293701171875,0.37660277734994885,-0.1310299339234829,-0.08045121827628463
1700007027161238800,6.58023876953125,0.46926615573912855,-0.18624913232028484,-0.10189944530073552
1700007027171185000,6.590184814453125,0.510485762616992,-0.23059973070025444,-0.14813308094833044
1700007027181129700,6.600129638671875,0.521813796839118,-0.2620686356753111,-0.17384313013572245
1700007027191074600,6.610074462890625,0.5121542803511023,-0.3009796733498573,-0.16807240124717354
1700007027201019600,6.62001953125,0.5005678874537348,-0.3207593095749616,-0.10772950316108762
1700007027210964700,6.62996484375,0.4388146111130714,-0.28670740236937997,0.04665244558155537
1700007027220910800,6.639910888671875,0.31728812633305786,-0.2271153957158327,0.21246503040427342
1700007027230855700,6.649855712890625,0.21617051559239625,-0.14103344154357908,0.27205972220525143
1700007027240801000,6.659801025390625,0.16506810486465692,-0.04415595259070396,0.30786603533010926
1700007027250746000,6.66974609375,0.11601619692593812,0.04289981504976749,0.3389155458493158
1700007027260691200,6.679691162109375,0.07596124991327524,0.10224924511909485,0.33776812937986106
1700007027270637000,6.689636962890625,0.08009849584847688,0.16213117462992668,0.3351122080435976
1700007027280582100,6.69958203125,0.07208119360953569,0.22248130617439746,0.33880978391990063
1700007027290527200,6.70952734375,0.07562573434859514,0.2824672805815935,0.36785701470598575
1700007027300472000,6.71947216796875,0.09753799868822097,0.30721827547848224,0.33603790805377065
1700007027310417200,6.729417236328125,0.11458470281809567,0.3325292423456907,0.3235554430995136
1700007027320362000,6.739362060546875,0.009577098901569842,0.3941548006534576,0.40674467150494453
1700007027330308000,6.74930810546875,-0.5293994296625256,0.34426585736870763,0.3526164101500064
1700007027340253200,6.759253173828125,-0.32967619100213047,0.17162731724977492,0.3590227700609714
1700007027350198000,6.769197998046875,0.2844119849085808,0.1543786608070135,0.3489182862844318
1700007027360143000,6.77914306640625,0.23244272821843623,0.11318097350001334,0.2595683432921767
1700007027370088200,6.789088134765625,0.010236439593136309,-0.004704816690087319,0.18669093953734262
1700007027380034300,6.799034423828125,0.06420709923356771,-0.06370996336638927,0.16424148131478578
1700007027389979100,6.808979248046875,0.05467939243167638,-0.11029811154007911,0.2061553540671244
1700007027399924000,6.818924072265625,0.07284574824124575,-0.171228088799119,0.2819196018372662
1700007027409869300,6.828869384765625,0.15074673404544592,-0.21921908950805663,0.30468415389098225
1700007027419814100,6.838814208984375,0.2618386263117194,-0.23467326374948022,0.2740707880330272
1700007027429760000,6.848760009765625,0.2632332955405116,-0.2044979057163,0.17649627499300985
1700007027439705000,6.858705078125,0.29489859987050293,-0.15720774675309657,0.10419164789114146
1700007027449650200,6.868650146484375,0.3125216425836086,-0.08023673527538776,0.07434081823774613
1700007027459595300,6.87859521484375,0.2583563371539116,0.0008832125753164291,0.07341697225794196
1700007027469540000,6.8885400390625,0.2352475565060973,0.05631342337429523,0.095160008377349
1700007027479485000,6.89848486328125,0.22379092746824025,0.09314356312155724,0.09302713366765529
1700007027489431000,6.90843115234375,0.18483751195669174,0.12302373760044574,0.06943007631255313
1700007027499376000,6.918376220703125,0.1604421986296773,0.1487929696291685,0.07844839968704619
1700007027509321200,6.9283212890625,0.10332125826478004,0.1485878024458885,0.051254651280539104
1700007027519266000,6.93826611328125,-0.008171323756873607,0.108446346193552,0.03061660812781192
1700007027529211100,6.948211181640625,-0.12100216864496469,0.06366261709332466,0.006699945163214579
1700007027539157200,6.9581572265625,-0.04780015431195497,0.029736966615915298,0.015056681090127675
1700007027549102000,6.96810205078125,-0.08955606002360582,0.01740121665596962,-0.01217782858503051
1700007027559047000,6.978046875,-0.13974047912359236,-0.027041736182570456,-0.02413753917366266
1700007027568992300,6.9879921875,-0.1551388315245509,-0.02578150698840618,0.015403896225756034
1700007027578937000,6.99793701171875,-0.2115600991874933,-0.03292962517738342,0.04992150298063643
1700007027588883200,7.00788330078125,-0.19912527276724576,-0.03387830420434475,0.1053490651648026
1700007027598828000,7.017828125,-0.18555062866210936,-0.015720131701231002,0.1051808415915817
1700007027608773000,7.027773193359375,-0.10335136114209889,-0.027743746972084045,0.04527841728199273
1700007027618718200,7.03771826171875,-0.0674792527720332,-0.02310848838686943,0.0068014967083930965
1700007027628663000,7.0476630859375,-0.03358078256249428,-0.004538812473416328,-0.01993467152318917
1700007027638608000,7.05760791015625,0.025280571728944778,0.00864917040169239,-0.03383198997774161
1700007027648554000,7.067553955078125,0.04330635002404451,-0.010762217032909393,-0.022012126251216978
1700007027658499000,7.0774990234375,0.059143093842267985,-0.008448679393529892,0.003830846867151558
1700007027668444200,7.087444091796875,0.09363105437755584,0.031684593552350995,0.02109290164760314
1700007027678389000,7.097388916015625,0.10800649347156285,0.05167641122341156,0.016895148563664406
1700007027688334000,7.107333984375,0.11486936497837305,0.07359773565232754,-0.007768204582389444
1700007027698280200,7.1172802734375,0.13098317217230795,0.07110358074903488,-0.0168284308698494
1700007027708225000,7.12722509765625,0.13189151918888092,0.0431914914727211,-0.01329961742288433
1700007027718170000,7.137170166015625,0.1296791038364172,0.009119126001000405,-0.011603535828413442
1700007027728115200,7.147115234375,0.18500848460942507,-0.022027707412838934,-0.022566463065193963
1700007027738060000,7.15706005859375,0.2502013800099492,-0.04633095854222774,-0.03182173700071871
1700007027748006100,7.167006103515625,0.29177900654524563,-0.06283318053185939,-0.012470281326118856
1700007027757951000,7.176950927734375,0.3573720071792602,-0.0889969648361206,-0.003481832500081509
1700007027767896000,7.18689599609375,0.3825301215723157,-0.08850129027366638,0.03266101910276338
1700007027777841200,7.196841064453125,0.20175825161933897,0.029528876823186872,0.09866471029636449
1700007027787786000,7.206785888671875,-0.2619771579995751,0.05610182645022869,0.036089358716784044
1700007027797732000,7.216732177734375,-0.055606736409664154,-0.02048106249272823,0.054567310359328984
1700007027807677000,7.226677001953125,0.43611733485311266,0.04149988512396812,0.028777884925948453
1700007027817622300,7.236622314453125,0.3295040493056178,0.08072656461894512,-0.018584562955331056
1700007027827567000,7.246567138671875,0.10799977146983146,0.051665305307507514,-0.029373713660938664
1700007027837512000,7.256511962890625,0.12686901485174892,0.06475333493947982,0.038098086457001044
1700007027847458000,7.2664580078125,0.0616153291746974,0.1113525890290737,0.07063099480122327
1700007027857403100,7.276403076171875,0.04191518792659044,0.10154957241714001,0.05049500115280971
1700007027867348200,7.28634814453125,0.18781477420181034,0.06018588089346885,0.027143662187084555
1700007027877293000,7.29629296875,0.31581776151955127,0.04857610712051391,-0.02036748258303851
1700007027887238100,7.306238037109375,0.2983101618796587,0.03917874870002269,-0.04826562553239055
1700007027897183200,7.316183349609375,0.21331892555356025,0.022864158236980438,-0.036885226368787695
1700007027907129000,7.326129150390625,0.15899199982136486,0.006636661535501479,-0.02405218527803663
1700007027917074200,7.33607421875,0.12006021161973476,-0.02868541173636913,-0.014604192648851311
1700007027927019000,7.34601904296875,0.10999679050594567,-0.08794307186901569,-0.03756826759635005
1700007027936964000,7.355964111328125,0.16810498834252358,-0.10480302125513553,-0.04165617623080033
1700007027946909200,7.3659091796875,0.2853156557500362,-0.08122457726895808,-0.014280705448682419
1700007027956855000,7.37585498046875,0.41367374011576175,0.06651800652444362,-0.03386344912850763
1700007027966800100,7.385800048828125,0.6076522976443172,0.20652619667351244,-0.07690497877048329
1700007027976745200,7.3957451171875,0.9200269329726696,0.35914953824579715,-0.15215361430183982
1700007027986690000,7.40568994140625,1.3597338167503474,0.5027618903666734,-0.22642708465810865
1700007027996635100,7.41563525390625,1.7866843870684503,0.5394926613926887,-0.23731659959880633
1700007028006581000,7.4255810546875,1.9134315291061996,0.4866875384002924,-0.14403063233187421
1700007028016526000,7.435526123046875,1.8055001466974614,0.38326866497993467,0.025161288164253344
1700007028026471200,7.44547119140625,1.592170407488942,0.2398889525711536,0.16945463111950085
1700007028036416000,7.455416015625,1.328675246141851,0.12835048558115958,0.2887633119858801
1700007028046361000,7.465361083984375,1.073652145063877,0.04155599922537803,0.2662878608055413
1700007028056307200,7.47530712890625,0.8968705137908458,0.006905541604757309,0.24181049521826206
1700007028066252000,7.485251953125,0.7106228427752852,0.06050327627956867,0.19158384441174567
1700007028076197000,7.495197021484375,0.5442281654819846,0.1124246021747589,0.14507000358328223
1700007028086142000,7.505141845703125,0.3019987872645259,0.11944354102611542,0.10172498378297314
1700007028096087000,7.515087158203125,-0.022879940328001974,0.1317956575989723,0.06101766010907013
1700007028106033200,7.525033203125,-0.34605946278721095,0.010262450817227363,-0.03167815924498718
1700007028115978000,7.53497802734375,-0.46191170132309195,-0.09256313288509845,-0.07957742198328487
1700007028125923000,7.544923095703125,-0.4847092240646481,-0.12538812864422796,-0.0756645045895595
1700007028135868200,7.5548681640625,-0.5032862065017223,-0.118668465000391,-0.06571292808610014
1700007028145813000,7.56481298828125,-0.4299614425718784,-0.08974339928925038,-0.07362847328388597
1700007028155758000,7.574758056640625,-0.2702779533550143,-0.034711832419037816,-0.02095306391865015
1700007028165704000,7.584703857421875,-0.16441080999970434,0.025339023917913435,0.043846302119642494
1700007028175649300,7.594649169921875,-0.2000114079520106,0.05154664736390113,0.05513022777198348
1700007028185594000,7.604593994140625,-0.40960853650346396,-0.022326982620358465,0.0005271382797975093
1700007028195539000,7.6145390625,-0.671542001491785,-0.16171324147880076,-0.09043867894387804
1700007028205484000,7.624484130859375,-0.7659501777216792,-0.3337099765628576,-0.1905181514089927
1700007028215430100,7.63443017578125,-0.6959189023792743,-0.43911856249570846,-0.21486838348526507
1700007028225375200,7.644375244140625,-0.5694257351025939,-0.39177462751865383,-0.21809488951740785
1700007028235320000,7.654320068359375,-0.5314014171347021,-0.2474105802476406,-0.16695278610009698
1700007028245264600,7.6642646484375,-0.7279227910138666,-0.09517711477577685,-0.2259178564943373
1700007028255209500,7.67420947265625,-0.6275181508481502,-0.08886953906416893,-0.31017456800080834
1700007028265155600,7.684155517578125,-0.14380436756163834,-0.019643442624807356,-0.25317900758124884
1700007028275100400,7.694100341796875,-0.13232026599496602,0.01477729789316654,-0.17496373166348783
1700007028285045500,7.70404541015625,-0.36446401126682754,-0.03145136931836605,-0.08104734840537421
1700007028294990600,7.713990478515625,-0.2719163682118058,-0.08360124327242374,-0.054756805049441755
1700007028304935400,7.723935302734375,-0.2237128937959671,-0.09347440251111984,-0.0988840886680875
1700007028314881500,7.733881591796875,-0.27967472725361586,-0.12180384041666983,-0.15083633029134944
1700007028324826400,7.743826416015625,-0.1992337015777826,-0.15868541809022427,-0.1784864441632293
1700007028334771500,7.753771484375,-0.1141372513115406,-0.17419804452061652,-0.20183341748109085
1700007028344716500,7.763716552734375,-0.11259294447898864,-0.14918693738281727,-0.17598136600712314
1700007028354661400,7.773661376953125,-0.1940542531132698,-0.11564005708992481,-0.15168585065961815
1700007028364607500,7.783607421875,-0.23973493105322122,-0.08961538899540901,-0.10511204153853468
1700007028374552600,7.793552490234375,-0.2509212187170982,-0.06271861424148083,-0.0013782112843357026
1700007028384497400,7.803497314453125,-0.2049555863559246,-0.009254735079407692,0.04861759904152713
1700007028394442500,7.8134423828125,-0.12038900518268346,0.031849428725242615,0.09277876666346564
1700007028404387600,7.8233876953125,-0.0720353086411953,0.05348842908143997,0.08429170062146149
1700007028414332400,7.83333251953125,-0.023471476480364798,0.04093582150042057,0.046703024991322305
1700007028424278500,7.843278564453125,-0.029353227995336056,-0.0030243162572383877,0.045217325611365954
1700007028434223400,7.853223388671875,-0.047403556209802626,-0.06369768840670585,0.03739989332607947
1700007028444168400,7.86316845703125,-0.08030483207553625,-0.13451193082034588,0.06393320506247692
1700007028454113500,7.873113525390625,-0.031047172431647774,-0.1758323677241802,0.10267063973578623
1700007028464058400,7.883058349609375,0.042438335017859936,-0.1633978335648775,0.08314453988033346
1700007028474004500,7.89300439453125,-0.07100771915912628,-0.11489245359301567,0.05168596450304612
1700007028483949300,7.90294921875,-0.26218261744379995,-0.0781739575266838,0.023783127112267537
1700007028493894700,7.912894775390625,-0.16740940729379652,-0.10545710124969482,-0.06395685079954565
1700007028503839500,7.922839599609375,0.12191489957571029,-0.1311684656113386,-0.21775791264800354
1700007028513784300,7.932784423828125,0.3322667920172214,-0.09828267957568168,-0.2402525617191568
1700007028523730400,7.94273046875,0.3653860945478081,0.00429214423596859,-0.14485980403185822
1700007028533675500,7.952675537109375,0.32557430864125486,0.13833528850078583,-0.05982566014579497
1700007028543620600,7.96262060546875,0.30426088697761294,0.19812895520627496,-0.00897085837041959
1700007028553565400,7.9725654296875,0.31083968084603547,0.2260211707383394,0.05975851319371722
1700007028563510500,7.982510498046875,0.3262146523714065,0.2545207045137882,0.10034299137266352
1700007028573456600,7.99245654296875,0.3468012210652232,0.2437988194912672,0.060726417510956525
1700007028583401500,8.0024013671875,0.40819092479050156,0.25155600948929785,0.018351882144040425
1700007028593346300,8.01234619140625,0.46188452105522154,0.26055881563425065,-0.022337403549673035
1700007028603291400,8.02229150390625,0.4318143769621849,0.249144272172451,-0.006713053523248527
1700007028613236500,8.032236572265624,0.3805643744572997,0.2332891159147024,0.016700895500043406
1700007028623182600,8.0421826171875,0.3379424995660782,0.18572949236035347,0.05516249977350235
1700007028633127400,8.05212744140625,0.3075602207839489,0.14897650950253008,0.11527956234761513
1700007028643072300,8.062072265625,0.32586013984531165,0.11508534581661224,0.16004019370004532
1700007028653017600,8.072017578125,0.37627164569944144,0.09108604606986045,0.16930530404299496
1700007028662962400,8.08196240234375,0.45184740342646834,0.06768003604114055,0.15430174137959257
1700007028672908500,8.091908447265626,0.5066486686721444,0.07299509358406066,0.14612530305618418
1700007028682853400,8.101853271484375,0.5342854481384158,0.048830958664417265,0.1517723324998282
1700007028692798500,8.111798583984376,0.4923085931524634,0.032865327769517894,0.17805886640092358
1700007028702743600,8.12174365234375,0.23169541698247192,0.047156887972354886,0.17487689363025127
1700007028712688400,8.1316884765625,0.05158785615712404,0.006634323447942733,0.14322214722689242
1700007028722633500,8.141633544921875,0.4423182353198528,0.007059855383634567,0.15781216065334155
1700007028732579600,8.15157958984375,0.574470451271534,0.11840484562814235,0.12301423911973833
1700007028742524400,8.1615244140625,0.22842793961912392,0.11747253321409225,0.031616834678919986
1700007028752469500,8.171469482421875,0.13558452848792074,0.06171732824444771,-0.038649413896561596
1700007028762414300,8.181414306640624,0.28008067770600314,0.048749125599861144,-0.006384919830714352
1700007028772359400,8.191359375,0.19851064800024032,0.052388358885049814,-0.0009563234772998839
1700007028782305500,8.201305419921875,0.15393237834423779,0.03173018625974655,0.008097728797700255
1700007028792250400,8.21125048828125,0.24733546918481586,-0.001567103186249733,0.026313214128755497
1700007028802195500,8.221195556640625,0.17060206585526466,0.045998365586996076,0.0332106158095412
1700007028812140500,8.231140625,-0.12708645699471235,0.08938800998032093,0.010806677229143679
1700007028822085400,8.24108544921875,-0.3042152942702174,0.08391863865852356,-0.01834892756855115
1700007028832031500,8.251031494140625,-0.29063568172901866,0.07494213599860668,-0.09691984852356836
1700007028841976300,8.260976318359376,-0.3191460291594267,0.018050620475411415,-0.11759670758303255
1700007028851921700,8.270921630859375,-0.3010188363164663,-0.06555822158157826,-0.09790303260833025
1700007028861866500,8.280866455078124,-0.17985066345483064,-0.13781681758463382,-0.11963665244542061
1700007028871811300,8.290811279296875,-0.10591770449876785,-0.1787736818730831,-0.19889924545902757
1700007028881757400,8.30075732421875,-0.14627455706745385,-0.19471125571727751,-0.22611233788682147
1700007028891702500,8.31070263671875,-0.3025909079387784,-0.22186171297132967,-0.23674155792351811
1700007028901647600,8.320647705078125,-0.3949593950346112,-0.25625848809182644,-0.28118717764317985
1700007028911592400,8.330592529296876,-0.30102058988213537,-0.26573826409876344,-0.284809240597859
1700007028921537300,8.340537353515625,-0.27250731984227894,-0.24254969621300695,-0.22973889435352757
1700007028931483400,8.3504833984375,-0.2761126508578658,-0.20580314309597014,-0.1980488757073879
1700007028941428500,8.360428466796876,-0.25460487566590306,-0.19043080191910267,-0.16491817499995232
1700007028951373600,8.37037353515625,-0.20994886459857223,-0.20104162778258322,-0.10806097273831256
1700007028961318400,8.380318359375,-0.1869254241466522,-0.24624504359960556,-0.09109282287051901
1700007028971263500,8.390263427734375,-0.1627706415772438,-0.2320686342090368,-0.0784551308219321
1700007028981209600,8.400209716796875,-0.11936053891777991,-0.16554887411892413,-0.040893361465027554
1700007028991154400,8.410154541015626,-0.09908201325982809,-0.0960772784858942,0.00427185949976556
1700007029001099500,8.420099609375,-0.10363076260536909,-0.03625555472970009,0.043143971669720484
1700007029011044600,8.430044677734376,-0.07669511714577674,0.02543547002971172,0.10371937247058376
1700007029020989400,8.439989501953125,-0.010362404060363768,0.07164484801888465,0.12099558364055119
1700007029030934500,8.4499345703125,0.02985883942991495,0.08592354874014854,0.13412036508633754
1700007029040880400,8.45988037109375,0.08051672126054764,0.06843056214749813,0.13419564967909828
1700007029050825500,8.469825439453125,0.14804419708848,0.04219546617269516,0.14753582744123414
1700007029060770600,8.4797705078125,0.16619506306797266,0.03248363497555256,0.10365169579554348
1700007029070715400,8.48971533203125,0.2017564980536699,0.04422141904234886,0.06655347056346946
1700007029080661500,8.49966162109375,0.2424386370539665,0.05754442647397518,0.10958329606791957
1700007029090606300,8.5096064453125,0.27202801189273595,0.06430442212820053,0.1411890522303991
1700007029100551400,8.519551513671875,0.23910189384669064,0.07825403702557086,0.1774501233854331
1700007029110496500,8.52949658203125,0.1482920343697071,0.09870528890192508,0.18702433621017261
1700007029120441300,8.53944140625,0.03450315810441971,0.10828384910821914,0.18961108303405344
1700007029130386700,8.54938671875,-0.017668050898611544,0.10691665240824222,0.19707345480397342
1700007029140332500,8.55933251953125,0.11658493672460317,0.09655307930409908,0.19695329902302472
1700007029150277400,8.56927734375,0.2539581021949649,0.055231473356485365,0.1655064780156128
1700007029160222500,8.579222412109376,0.22753245208412406,0.0779781426936388,0.13847424944690429
1700007029170167600,8.58916748046875,-0.20669483123868704,0.13908698365092276,0.10976331054363399
1700007029180112400,8.5991123046875,-0.20280922197699547,0.005468202278017998,0.09387000509942882
1700007029190058500,8.60905859375,0.46117052756696936,-0.027089666977524757,0.049364581483928485
1700007029200003300,8.61900341796875,0.6006520634934306,0.0029991818159818646,-0.07228187184736598
1700007029209948400,8.628948486328126,0.14058569777607918,-0.02979308071732521,-0.20692686816258354
1700007029219893500,8.6388935546875,0.0421674091219902,-0.07583119379281997,-0.2579850926887244
1700007029229838300,8.64883837890625,0.23847937803417443,-0.08643383634984493,-0.23518508572913704
1700007029239784700,8.65878466796875,0.24667408266663549,-0.07222410921156407,-0.1737878014856018
1700007029249729500,8.6687294921875,0.21835107450187205,-0.09287351400852203,-0.1372191530855838
1700007029259675000,8.6786748046875,0.3129688018292188,-0.12156827809512614,-0.17236249965652822
1700007029269619700,8.68861962890625,0.3638230830147862,-0.11888590714335441,-0.18393380458261815
1700007029279564500,8.698564453125,0.2690720846965909,-0.06746376294195651,-0.1691671011487022
1700007029289510700,8.7085107421875,0.2853694317638874,-0.014150105905532836,-0.16555269177751614
1700007029299455700,8.718455810546875,0.3060229282140732,0.04593465270102024,-0.1290358648962807
1700007029309400800,8.72840087890625,0.25768442924171686,0.09091068950295447,-0.08588055898179299
1700007029319345700,8.738345703125,0.22960487444400787,0.1316524497359991,-0.008047784142172896
1700007029329290800,8.748290771484376,0.29452947429716586,0.15757424197793005,0.006961226447904482
1700007029339236900,8.75823681640625,0.3395110640570521,0.15502046584188936,0.04537500952426344
1700007029349181700,8.768181640625,0.35221155567616225,0.13856792821288108,0.09594176073903217
1700007029359126800,8.778126708984376,0.2837950220540166,0.11601590466499329,0.13045347660924309
1700007029369071600,8.788071533203125,0.2788286318182945,0.08668576528429985,0.15296368857570922
1700007029379016700,8.7980166015625,0.38201077387332916,0.07937456548810004,0.11767983755553141
1700007029388962800,8.807962890625,0.3372656232178211,0.06831307324767112,0.08371755399531684
1700007029398907600,8.81790771484375,0.25759733548015357,0.07028291201591491,0.10032311762841417
1700007029408852700,8.827852783203125,0.2962126050785184,0.08514671914875507,0.13369345404431224
1700007029418797800,8.8377978515625,0.23513094438910484,0.09496376428604125,0.106501039078366
1700007029428742700,8.84774267578125,0.256675252199173,0.09651450085937976,0.03040678303572349
1700007029438688800,8.857688720703125,0.4281237057507038,0.09704232412576674,-0.11752226324048824
1700007029448633600,8.867633544921874,0.4670671843901276,0.06671031422615051,-0.20027336509013546
1700007029458579000,8.877578857421875,0.25897242322564124,0.04681435814499855,-0.2322254139396362
1700007029468523800,8.887523681640625,0.09921353068500757,0.006809095492959022,-0.19597621588548644
1700007029478468600,8.897468505859376,0.007079436866939067,-0.06782792007923126,-0.0957390595074743
1700007029488413700,8.90741357421875,-0.020211305640637875,-0.11066928294003009,-0.059375715288054194
1700007029498359800,8.91735986328125,-0.0026478841602802275,-0.1271475395321846,-0.0601880819837097
1700007029508305000,8.927304931640625,0.0002598199799656868,-0.09015139556825161,-0.060957970377663144
1700007029518249700,8.937249755859375,0.025293138949573038,-0.05718436098992824,-0.039138841381319796
1700007029528194600,8.947194580078126,0.017766542837023735,-0.051235097196698186,-0.03532798242284916
1700007029538140000,8.957139892578125,-0.036707390150427816,-0.047936055651307104,-0.004586373375612311
1700007029548085800,8.967085693359374,-0.0860819541722536,-0.037810967478156085,0.06647897142199799
1700007029558030600,8.977030517578125,-0.15421207206845283,0.013696516919136047,0.16511700377399102
1700007029567975700,8.9869755859375,-0.2235629639312625,0.040509705042839045,0.23614176539946347
1700007029577920800,8.996920654296876,-0.16928309221118687,0.023134791871905324,0.2668817350454628
1700007029587865900,9.006865966796875,-0.10603343983292579,-0.015858663389086723,0.24482118480894713
1700007029597811700,9.016811767578124,0.004522445860505104,-0.06949556103050708,0.26402322207549583
1700007029607756500,9.026756591796875,0.19521715941280127,-0.08559504743814468,0.30884145623352377
1700007029617702000,9.036701904296875,0.3806368551716208,-0.045889644515514375,0.3481578233059495
1700007029627646700,9.046646728515626,0.15575871698856353,0.11545827078223228,0.3957484995856881
1700007029637591800,9.056591796875,-0.273159938532114,0.17990473172962665,0.3142658559024334
1700007029647537700,9.06653759765625,0.11187865872979164,0.12548925093114374,0.2281772162610665
1700007029657482800,9.076482666015625,0.5684829012945294,0.20154080947637557,0.0728231710832566
1700007029667427800,9.086427734375,0.4288125647976994,0.18302140244543552,-0.06394327893191948
1700007029677372700,9.09637255859375,0.08005494896769523,0.12687398328781127,-0.11980718670673668
1700007029687317500,9.1063173828125,0.16342793644219636,0.11974924597442149,-0.0806514900887385
1700007029697263600,9.116263671875,0.2067547447323799,0.14542612354457377,-0.023596545898448673
1700007029707208700,9.126208740234375,0.07602759314775466,0.15797463947236537,0.02422361002191901
1700007029717153800,9.13615380859375,0.11884966678619384,0.08871931693851948,0.019208978463988752
1700007029727098600,9.1460986328125,0.2724491599142551,0.0014864391654729843,-0.02551761362152174
1700007029737043700,9.156043701171875,0.26442455115169283,-0.05614975724518299,-0.06970182419233023
1700007029746989800,9.16598974609375,0.23293431112766264,-0.07873042236566544,-0.07996911558145657
1700007029756934700,9.1759345703125,0.2417474399194121,-0.09613280806541442,-0.13274970692079513
1700007029766879700,9.185879638671874,0.13889496821016073,-0.12456862895488738,-0.2329008837820962
1700007029776824800,9.195824951171875,0.030059330438077448,-0.15211013135313986,-0.2941428313334472
1700007029786769700,9.205769775390625,0.04392798905372619,-0.12819149562716484,-0.2626847765459679
1700007029796715800,9.2157158203125,0.08461217388063669,-0.11334931580424308,-0.24244097514152527
1700007029806660600,9.22566064453125,0.15495207678079603,-0.11087971082031726,-0.21085056267865002
1700007029816605700,9.235605712890624,0.198945824547112,-0.07704349219202995,-0.1450769630470313
1700007029826550800,9.24555078125,0.14892682514190672,0.008648001357913018,-0.03890513765672222
1700007029836495600,9.25549560546875,0.25236264969706534,0.06305822145938873,0.04698421655287966
1700007029846440700,9.265440673828126,0.3076505294159055,0.07844926733672618,0.09815231292797252
1700007029856386600,9.275386474609375,0.28074147970229385,0.06705576666295528,0.13375386072834952
1700007029866332000,9.285331787109374,0.2912204958796501,0.061678165277838704,0.1409004993462935
1700007029876276700,9.29527685546875,0.3102688952207565,0.08324585396349429,0.14921842849962413
1700007029886221600,9.3052216796875,0.32435470371842384,0.07651625344753266,0.1554986412802711
1700007029896167000,9.3151669921875,0.31390023746043444,0.11845745259821414,0.10921809775102882
1700007029906112800,9.32511279296875,0.3099272421762347,0.16210253305733202,0.056441013543028384
1700007029916057900,9.335057861328124,0.31114480127245187,0.22091303394436834,0.04739480664776638
1700007029926002700,9.345002685546875,0.3450900332331657,0.2536263860225677,0.0319846907437779
1700007029935947800,9.35494775390625,0.36987405361682174,0.23662089068591594,-0.06671517306435854
1700007029945892900,9.364892822265626,0.15826280876398086,0.20366905367672442,-0.15615909621668977
1700007029955838700,9.374838623046875,-0.06726005706340074,0.11266893232464789,-0.15882643399611115
1700007029965783800,9.38478369140625,-0.10467267287373543,0.010600304469466209,-0.11449066785909234
1700007029975728600,9.394728759765625,-0.03889788593202829,-0.13068681957423686,-0.07474628463294357
1700007029985673700,9.404673828125,-0.11240151356011628,-0.26368250061273574,-0.07542356283999979
1700007029995618800,9.414618896484376,-0.23013532805889844,-0.30952187624573707,0.008083152283076196
1700007030005564700,9.424564697265625,-0.39682840377688405,-0.30185119548738,0.06789009859524667
1700007030015509500,9.434509521484374,-0.617611673861742,-0.31295944947898385,0.10862921021347864
1700007030025454800,9.444454833984375,-0.6872197553560138,-0.30207097571790215,0.13720045751826837
1700007030035399700,9.454399658203124,-0.6056853814855218,-0.2941612255066633,0.07804103359570726
1700007030045344800,9.4643447265625,-0.5025093769103288,-0.3027928602516651,-0.050135447125416246
1700007030055290600,9.47429052734375,-0.3399991398349404,-0.28214228641092776,-0.17024214650169014
1700007030065235700,9.484235595703124,-0.14416677113324403,-0.2541922032117844,-0.2408963577817194
1700007030075180800,9.494180908203125,-0.008421791386604309,-0.21336744087040424,-0.2157975540941581
1700007030085125600,9.504125732421874,-0.03947305547147989,-0.07056465156674385,-0.09123909947341308
1700007030095070700,9.51407080078125,-0.4258379329010844,0.05905600008070468,-0.004634765394870191
1700007030105016800,9.524016845703125,-0.27357114968150853,0.015122165808081626,0.07830012292331084
1700007030114961700,9.533961669921876,0.3800412273660302,0.04730418748855591,0.12285460984492674
1700007030124906800,9.54390673828125,0.5423112259447574,0.12596797435879706,0.07454279795009643
1700007030134851600,9.5538515625,0.23133184436708687,0.08509937287569046,0.060515551239252084
1700007030144796700,9.563796630859375,0.2339689148724079,0.06740414170920848,0.08473861327189952
1700007030154742800,9.57374267578125,0.45471243746876716,0.12342705770432949,0.13153649520613253
1700007030164687600,9.5836875,0.4838903088971972,0.2004816558122635,0.195888373205252
1700007030174632700,9.5936328125,0.30394086124300956,0.22600071247220038,0.2800269747573882
1700007030184577800,9.603577880859374,0.24613953739851713,0.211844176825881,0.4084935975315049
1700007030194522600,9.613522705078125,0.20765636974722146,0.16676818678081035,0.44285197687037287
1700007030204468700,9.62346875,0.10184387918859719,0.11834814700484275,0.4460336756464094
1700007030214413600,9.63341357421875,0.08096125015765428,0.06951426573097705,0.4405512987125665
1700007030224359000,9.64335888671875,0.09823737912923097,0.03309562939405441,0.4015790323700756
1700007030234303700,9.6533037109375,-0.00163432320356369,0.025796120035648344,0.3273082928270101
1700007030244249600,9.66324951171875,-0.04659779278486967,-0.01974573395550251,0.21626981124840675
1700007030254194400,9.6731943359375,0.029775837321579453,-0.09421966792047023,0.09889872911479324
1700007030264139500,9.683139404296876,0.13274725923538208,-0.14865268437564372,0.007118015311658382
1700007030274084600,9.693084716796875,0.22211685677617787,-0.177645554625988,-0.08808975033070891
1700007030284029400,9.703029541015624,0.1839934623479843,-0.2094914762198925,-0.13934888599012046
1700007030293975600,9.7129755859375,0.15442688386291265,-0.18580898733735082,-0.15296123175714163
1700007030303920400,9.72292041015625,0.2212657929047942,-0.08210720532238483,-0.16496179494597016
1700007030313865500,9.732865478515626,0.17359686375707387,0.017004910814762113,-0.1392660300122574
1700007030323810600,9.742810546875,0.1456248609870672,0.09441139110028743,-0.14967150602936743
1700007030333755400,9.75275537109375,0.26319734744429585,0.14176643199324607,-0.18275489699635653
1700007030343701500,9.762701416015625,0.2696992766842246,0.20071780265569686,-0.18679018039442596
1700007030353646600,9.772646484375,0.17553689190894364,0.24948154130280017,-0.153943886118941
1700007030363591400,9.78259130859375,0.12433102080672978,0.25729484540224073,-0.10206563218049705
1700007030373536500,9.79253662109375,0.2344894316151738,0.2630260825306177,-0.038467823951691384
1700007030383481600,9.802481689453124,0.2834671052739024,0.25142975276112556,-0.06000891689136624
1700007030393427700,9.812427734375,0.02711217107027769,0.23373042994141577,-0.0792148814143613
1700007030403372500,9.82237255859375,-0.11489917559474706,0.1516810922861099,-0.013586480673402547
1700007030413317400,9.8323173828125,-0.19320406602472065,0.008294365614652632,0.05806019397638738
1700007030423262700,9.8422626953125,-0.3515034074068069,-0.09812368962168692,0.15316997913699595
1700007030433207600,9.85220751953125,-0.4209706191256642,-0.2171019512236118,0.18051278062537313
1700007030443153700,9.862153564453125,-0.4204772826507687,-0.35410686790347096,0.1666828465849161
1700007030453098500,9.872098388671875,-0.38861177957355975,-0.42800446328520775,0.11884827854670584
1700007030463043300,9.882043212890625,-0.41644115900248285,-0.4396843796849251,0.05276197797041386
1700007030472988700,9.89198876953125,-0.4355503486201167,-0.39964287667572496,0.007116334811225533
1700007030482933500,9.90193359375,-0.42613399323821066,-0.34954409003257747,-0.0397823040837422
1700007030492879600,9.911879638671875,-0.3883867386460304,-0.2895265514433384,-0.1297115082686767
1700007030502824400,9.921824462890624,-0.2431502924546599,-0.2109855141699314,-0.22816727938894182
1700007030512769500,9.93176953125,-0.07591331911832094,-0.11878420033454894,-0.24206538329478353
1700007030522714600,9.941714599609375,0.0064107438251376145,-0.03560439734458923,-0.2193066216610372
1700007030532659500,9.951659423828126,0.14470628483742476,0.00966565396785736,-0.20044285817183552
1700007030542605300,9.961605224609375,0.24353403107523916,0.04363865071833133,-0.20796262268479912
1700007030552550700,9.971550537109374,-0.014918167668581008,0.10131167200803756,-0.1327603744452819
1700007030562495500,9.98149560546875,-0.11791501628458499,0.05488777448534965,-0.05323467351607978
1700007030572440600,9.991440673828125,0.4251370911553502,0.02571779410243034,0.05641670108567923
1700007030582385700,10.0013857421875,0.8716066009357571,0.19154256255328656,0.10709865791164339
1700007030592331500,10.01133154296875,0.8018076730445027,0.2815191860765219,0.08894691514931619
1700007030602276600,10.021276611328124,0.6116574416324496,0.2926502364218235,0.03529047255720943
1700007030612221400,10.031221435546875,0.601514817802608,0.3303250102996826,0.07227934653013944
1700007030622166300,10.041166259765625,0.5016796480879188,0.4080880489379167,0.20011092280372977
1700007030632111600,10.051111572265626,0.28803718966841696,0.4294096539080143,0.33781693695764986
1700007030642056400,10.061056396484375,0.12760697373747826,0.3708785544842481,0.38663225966151804
1700007030652002600,10.07100244140625,0.11785948670506477,0.28380700475275517,0.3595435059994459
1700007030661947400,10.080947509765625,0.19986586200147866,0.1889174747467041,0.26567272458188235
1700007030671892500,10.090892578125,0.28393881443887947,0.11254618272781372,0.19990908008869737
1700007030681837600,10.100837646484376,0.32817309296280145,0.08405015608370303,0.16284849258642642
1700007030691783400,10.110783447265625,0.22967414028793573,0.05588087717592716,0.09854794291574508
1700007030701728500,10.120728515625,0.08615501940846443,0.02124970877766609,0.022311127464100716
1700007030711673600,10.130673583984375,0.003609714929759502,0.011889175236225128,-0.04389043352231383
1700007030721618400,10.140618408203125,-0.05478109924048185,0.003016132950782776,-0.0586712750794366
1700007030731563500,10.1505634765625,-0.06610153467804193,-0.015443068325519562,-0.024657398329302666
1700007030741509400,10.16050927734375,-0.05351151769608259,-0.0609071809053421,0.016539083401300014
1700007030751454500,10.170454345703124,-0.08147066098451614,-0.06560030715763568,0.07425086579881608
1700007030761399600,10.180399658203125,0.038197628708183766,-0.07491290990412235,0.15232107069008052
1700007030771344400,10.190344482421875,0.1520131007194519,-0.06901683760285376,0.19518599708955733
1700007030781289500,10.20028955078125,0.13656447943598032,-0.036709728237986565,0.18439528461452573
1700007030791235300,10.2102353515625,0.12177607562690973,-0.0033230069428682326,0.17054259075298905
1700007030801180700,10.2201806640625,0.13402385504245756,0.031236265262961384,0.11533073541242629
1700007030811125500,10.23012548828125,0.06042933426052331,0.030143209329247474,0.05059478999916464
1700007030821070300,10.2400703125,0.017070377266407012,0.015766308930516244,0.016001323262788355
1700007030831015700,10.250015625,0.11003595347255468,-0.017643208718299865,0.03723707658033818
1700007030840961500,10.25996142578125,0.20238953526020048,-0.00994973160624504,0.07097969864103942
1700007030850906600,10.26990673828125,0.22544746250361203,0.005752864438295364,0.1225653811073862
1700007030860851500,10.2798515625,0.19084727376550434,-0.014404957449436187,0.17304796117004007
1700007030870796500,10.289796630859374,0.260173907969892,-0.030767478707432745,0.18130404060091823
1700007030880741600,10.29974169921875,0.27909108214676376,-0.07370762576758862,0.18080348893394693
1700007030890687500,10.3096875,0.22557255018800496,-0.12581307605803013,0.19314106552479787
1700007030900632600,10.319632568359374,0.07382511466741562,-0.140854577845335,0.22286235964754594
1700007030910577400,10.329577392578125,0.014468962596356869,-0.12935995488464833,0.24485948925903064
1700007030920522500,10.3395224609375,0.07671703671663999,-0.10798048224747181,0.2143164852235466
1700007030930467600,10.349467529296875,0.14257102637439964,-0.0746492905318737,0.1636425473072566
1700007030940413400,10.359413330078125,0.12158376792520284,-0.05726970118582248,0.11824706125054507
1700007030950358500,10.369358642578124,0.07943389445990323,-0.059919923433661454,0.08889127597194164
1700007030960303600,10.3793037109375,0.08925327768474817,-0.05386778378784656,0.03562248099055141
1700007030970248400,10.38924853515625,0.10852554890960454,-0.044637598627805704,0.0034393267989158626
1700007030980193500,10.399193603515625,0.16003770948201418,-0.029668577554821968,-0.006978570308350026
1700007030990139400,10.409139404296875,0.2510217564821243,-0.042974633851647376,-0.062191886953637
1700007031000084500,10.41908447265625,0.2752148252353072,-0.0636561873525381,-0.09717022482175379
1700007031010029600,10.429029541015625,0.17068448344171047,-0.020530162331461904,-0.014560805598273873
1700007031019974400,10.438974365234374,-0.2515340899184346,-0.0065676879525184625,0.023114991192892193
1700007031029919700,10.448919677734375,-0.09926116921901702,-0.0757429309874773,0.08966134702898561
1700007031039865600,10.458865478515625,0.40922026783823967,0.02747428238093853,-0.004979176652058959
1700007031049810400,10.468810546875,0.42939416407793757,0.1255874506086111,-0.2229343654378317
1700007031059755500,10.478755615234375,0.03382248236387968,0.1429986041367054,-0.33647355952467767
1700007031069700400,10.488700439453124,-0.011217559584975242,0.14032500101327897,-0.28504737846897915
1700007031079645400,10.4986455078125,0.12556085486263036,0.13090192362964154,-0.10899132152413948
1700007031089591600,10.508591552734375,0.1350508600026369,0.07969839061498642,0.013138682106975465
1700007031099536400,10.518536376953126,0.12557137625664472,0.02582943778336048,0.07653033677181229
1700007031109481500,10.5284814453125,0.14893120905607937,-0.005516133072972297,0.11992641090592368
1700007031119426600,10.538426513671874,0.06938099474012852,-0.02031856540739536,0.12411551489252597
1700007031129371400,10.548371337890625,-0.03564765196442604,-0.033468554359674454,0.14194816350201145
1700007031139317500,10.5583173828125,-0.1114449434876442,-0.01266249769628048,0.1640303593147546
1700007031149262300,10.568262451171876,-0.1480111716017127,0.0028115502893924713,0.1758879886352457
1700007031159207700,10.578207763671875,-0.1865060296908021,0.021458967614173888,0.1241154235609807
1700007031169152500,10.588152587890624,-0.18800445155501364,0.018748539611697194,0.07308129229648039
1700007031179097300,10.598097412109375,-0.12817162188291548,0.004749824875593185,0.03305898717809468
1700007031189043500,10.60804345703125,-0.07064268523901701,0.006499298891425132,0.016338994251936672
1700007031198988500,10.617988525390626,-0.06443389372676611,-0.013098551025986671,-0.006771960086654871
1700007031208933600,10.62793359375,-0.08399550328701734,-0.048664954447746274,-0.04956630546795204
1700007031218878500,10.63787841796875,-0.10237287149876355,-0.09666004680991172,-0.09169301725337281
1700007031228824600,10.647824462890625,-0.05854132855683565,-0.1347422324448824,-0.10789510551895945
1700007031238769400,10.657769287109375,-0.03757569741755724,-0.14242051198780536,-0.11466297395238652
1700007031248714800,10.66771484375,-0.0753662066295743,-0.16642273434400556,-0.11648253579605371
1700007031258659600,10.67765966796875,-0.144743109716475,-0.11385609628260135,-0.09093635366717354
1700007031268604400,10.6876044921875,-0.32764234708696605,-0.03141337539553642,-0.029756895159091797
1700007031278550500,10.697550537109375,-0.5175044092074036,0.0486813210606575,0.07832832610448821
1700007031288495600,10.70749560546875,-0.5465153996363282,0.10795593232810496,0.15424345358740538
1700007031298440700,10.717440673828126,-0.26782792985439297,0.07404138776659965,0.11768853231864049
1700007031308385500,10.727385498046875,0.1000467666387558,-0.06245850200057029,-0.018231201206706463
1700007031318330600,10.73733056640625,0.3645905602559447,-0.16462532953321932,-0.10250530223939568
1700007031328276700,10.74727685546875,0.5091124284371733,-0.1928214964479208,-0.05299175900514237
1700007031338221600,10.7572216796875,0.47637335739582776,-0.1695680466324091,0.034173853084817525
1700007031348166700,10.767166748046876,0.12469956185817718,-0.16973112823963163,0.05281258477964438
1700007031358111700,10.77711181640625,-0.20911124473065137,-0.1866466072052717,0.012470628385990857
1700007031368056600,10.787056640625,-0.3256806916251778,-0.18351590796411035,-0.01094200317976065
1700007031378002700,10.797002685546875,-0.3645560734644532,-0.1558773749321699,-0.1504489932078868
1700007031387947500,10.806947509765624,-0.42252281700372696,-0.16897417239248752,-0.2541607851602137
1700007031397892600,10.816892578125,-0.45120326030403374,-0.1552320627659559,-0.2355426669951528
1700007031407837700,10.826837646484375,-0.481975415186584,-0.1555991425126791,-0.1481389535666909
1700007031417782500,10.836782470703126,-0.48788376244753595,-0.2265916641026735,-0.021742008639522827
1700007031427728600,10.846728759765625,-0.3802037244513631,-0.2714735928803682,0.08674273790223523
1700007031437673500,10.856673583984374,-0.2516796358689666,-0.31718320465385913,0.08305182009558193
1700007031447618600,10.86661865234375,-0.17160539767891167,-0.3452268113553524,0.033490852956450545
1700007031457563600,10.876563720703125,-0.0884568666100502,-0.2777706471979618,0.014905700912652536
1700007031467508500,10.886508544921876,-0.11453005002140998,-0.09907295317053794,0.09151161453817039
1700007031477454600,10.89645458984375,-0.4379050950527191,0.04327507810294628,0.08893605582858435
1700007031487399700,10.906399658203124,-0.41044834832847116,0.028777766194939613,0.0943674697601702
1700007031497344500,10.916344482421875,0.23098259253799913,0.04697627070844173,0.17791070836819708
1700007031507289600,10.92628955078125,0.5962435994014144,0.09148585904240608,0.17271392517639322
1700007031517234700,10.936234619140626,0.3502861405715346,0.020326164191961288,0.08503189713004976
1700007031527180500,10.9461806640625,0.18351561570316552,-0.044780806490778924,0.06416378981480375
1700007031537125600,10.956125732421874,0.12743629334568976,-0.019065350475907326,0.1292864329907112
1700007031547070500,10.966070556640625,0.030759879922866818,0.013657938474416731,0.19109458132376894
1700007031557015600,10.976015625,-0.05363865120708942,0.00646715018749237,0.29500121999476103
1700007031566960600,10.985960693359376,-0.06067746380269527,0.010437807384133338,0.3560654546253383
1700007031576906800,10.99590673828125,-0.07509732656031846,0.05942775600254535,0.35023707726541903
1700007031586851600,11.0058515625,-0.15035948829352855,0.09623334583044052,0.25783627706887197
1700007031596796400,11.01579638671875,-0.2014566383242607,0.09153554340302944,0.040465464042313395
1700007031606741800,11.02574169921875,-0.2381219428986311,0.103144148132205,-0.14590296554239465
1700007031616687600,11.0356875,-0.22375994780808686,0.12462941923141478,-0.23993231678884475
1700007031626632700,11.0456328125,-0.10545856255441903,0.15470423949956894,-0.3136424633070826
1700007031636577500,11.05557763671875,0.056446986626088616,0.18462591503262518,-0.3650314724238589
1700007031646522600,11.065522705078125,0.11329290944188833,0.1878314330756664,-0.39323885485231874
1700007031656467700,11.0754677734375,0.0249506091222167,0.1617769543647766,-0.43635223958753044
1700007031666413600,11.08541357421875,-0.10532032312750816,0.12167992177605629,-0.43837037447690963
1700007031676358700,11.095358642578125,-0.14797960741966962,0.06341185720264911,-0.41263080693408843
1700007031686303500,11.105303466796874,-0.0049926937207579606,0.013890578186511992,-0.34059622894525526
1700007031696248600,11.11524853515625,0.05821136595010757,0.007017185285687446,-0.25425801672330123
1700007031706193700,11.125193603515624,0.010151976180076598,-0.009214403069019318,-0.1573132894868031
1700007031716139500,11.135139404296876,-0.048157881708443165,-0.029701310780644415,-0.056140094367694106
1700007031726084600,11.145084716796875,-0.11387889263629912,-0.07054419330060481,-0.03272926203338429
1700007031736029700,11.15502978515625,-0.11432049892395735,-0.126973352009058,-0.03128037839932367
1700007031745974500,11.164974609375,-0.09423048157542943,-0.17843641274273395,-0.06013977672941982
1700007031755919600,11.174919677734374,-0.08027385241538286,-0.2099830591291189,-0.10458625496560707
1700007031765865500,11.184865478515626,-0.025247546242177486,-0.16111995176076888,-0.07235330681549385
1700007031775810600,11.194810546875,-0.0012301263168454169,-0.15145780492424965,-0.08553652218393981
1700007031785755600,11.204755615234374,0.02401478957682848,-0.16782675592303276,-0.09829683596519753
1700007031795700500,11.214700439453125,0.04995908591151237,-0.10385083509683608,-0.039405652791075406
1700007031805645800,11.224645751953124,0.051259062594175335,-0.06485679531395434,0.004088328759558499
1700007031815591700,11.234591796875,0.039869069051742555,-0.042910920965671534,-0.05537219700142741
1700007031825536500,11.24453662109375,0.048398412466049194,-0.03177987062036991,-0.18890837812479586
1700007031835481600,11.254481689453126,0.06215893453210592,-0.0036859950363636014,-0.25638558507021514
1700007031845426400,11.264426513671875,0.04851648588776588,0.03020049247443676,-0.23734091205615548
1700007031855371800,11.274371826171874,0.03857347628325224,0.031572949871420855,-0.2428096805897541
1700007031865317600,11.284317626953126,0.026211130577325818,0.03990998558402061,-0.23472313077319412
1700007031875262500,11.294262451171875,0.06862462341487408,0.04089432044625282,-0.2568117928593419
1700007031885207600,11.30420751953125,0.09052490505576133,0.03426701126098632,-0.29155807553725316
1700007031895152600,11.314152587890625,0.09227817846387625,0.04065934264659881,-0.2975485846563242
1700007031905097500,11.324097412109374,0.180614633564651,0.008897007682919502,-0.3252026257846504
1700007031915043600,11.334043701171876,0.20678250952214,-0.022680033841729164,-0.3538376590406522
1700007031924988400,11.343988525390625,0.03040215252637863,-0.020003508108854293,-0.30714155698046086
1700007031934933800,11.353933837890626,-0.2890904981136322,-0.06744622728526592,-0.3408752650823444
1700007031944878600,11.363878662109375,0.051553661626577374,-0.19028350240290165,-0.3651473173558712
1700007031954824700,11.37382470703125,0.46683366789519787,-0.18713176037371157,-0.3934938890593126
1700007031964769500,11.38376953125,0.3356172714889049,-0.18056816407442092,-0.3429215300876647
1700007031974714600,11.393714599609375,0.03605097206830978,-0.1769657556682825,-0.29693145740497856
1700007031984659700,11.40365966796875,0.06510784746557474,-0.19454408245682714,-0.21108471849439664
1700007031994604500,11.4136044921875,0.05351473256647586,-0.12350129198431968,-0.11168326402185484
1700007032004550700,11.423550537109374,0.006372749902307987,-0.024786650732159615,0.01320818541292101
1700007032014495500,11.43349560546875,0.11989859131723642,0.021267828956246376,0.08908478925004601
1700007032024440600,11.443440673828125,0.22526655297875403,0.03139642426073551,0.12927057783445342
1700007032034385700,11.4533857421875,0.20618775849938392,0.05873159043192863,0.19462708456516264
1700007032044330500,11.46333056640625,0.1366845986843109,0.10265256522297858,0.23501166539099066
1700007032054276600,11.473276611328124,0.0783291480883956,0.13651158020496368,0.2693200315756723
1700007032064221700,11.4832216796875,0.051234804935753345,0.15652034901082515,0.26556009452026336
1700007032074166500,11.49316650390625,-0.008313362576067447,0.18566811756193638,0.24518159735286607
1700007032084111600,11.503111572265626,-0.07758914337605237,0.18386019135713577,0.20470605030795558
1700007032094056700,11.513056640625,-0.09181582164913416,0.1474292800605297,0.1581648830811493
1700007032104002800,11.5230029296875,-0.0778255824804306,0.09810498492121696,0.14156177626661956
1700007032113947600,11.53294775390625,-0.1020794415101409,0.016203531304001807,0.11319657292794436
1700007032123892500,11.542892578125,-0.1379281690046191,-0.039679099437594414,0.12333990914383902
1700007032133837800,11.552837890625,-0.07696370495408773,-0.06332827057242393,0.15286783611895516
1700007032143783700,11.56278369140625,-0.004532090471684932,-0.06874620396792888,0.17927134746322407
1700007032153728500,11.572728515625,-0.06303747093230486,-0.08629705822765826,0.17445223847739397
1700007032163673600,11.582673583984375,-0.08749795845001936,-0.09862637844681739,0.21233075476642696
1700007032173618400,11.592618408203125,-0.061435880954563614,-0.1057674823731184,0.23007139597721396
1700007032183563800,11.602563720703126,-0.07612023986726998,-0.10037409889698028,0.2530340096199885
1700007032193509600,11.612509521484375,-0.07101093402951955,-0.1127513499110937,0.2711947759389877
1700007032203454500,11.622454345703124,-0.05623772778958082,-0.11931260812282561,0.24634861357193438
1700007032213399600,11.632399658203125,-0.006042495034635067,-0.12962006712555885,0.2237406951183453
1700007032223344600,11.6423447265625,-0.021124913354218004,-0.08626900117695331,0.18762765413187443
1700007032233289500,11.65228955078125,-0.042481881898641584,-0.05983282967209816,0.18223905642870813
1700007032243235800,11.66223583984375,-0.018942893140017986,-0.03521393672227859,0.16227069269847125
1700007032253180700,11.6721806640625,-0.024295067822933194,-0.017752514311671255,0.08464782971590756
1700007032263125800,11.682125732421875,-0.033927111782133576,-0.018297288712859152,0.055169623634032904
1700007032273070800,11.69207080078125,-0.07677695021033287,-0.02193418391048908,0.045605603409744795
1700007032283015700,11.702015625,-0.1013166404440999,-0.020239070430397986,0.04943517163526266
1700007032292961800,11.7119619140625,-0.10399199713319539,-0.031011808857321736,0.05239215827733278
1700007032302906600,11.72190673828125,-0.11702478944659232,-0.04689560668766498,0.050286600832827384
1700007032312851700,11.731851806640625,-0.1217901041522622,-0.07096388001739978,0.045909810520708555
1700007032322796800,11.741796875,-0.09929156435728073,-0.08651274680495262,0.023159086062945426
1700007032332741600,11.75174169921875,-0.07883359047919511,-0.11032558406889438,0.032534524912573394
1700007032342687500,11.7616875,-0.05950549741387367,-0.11976970424056052,0.04120437277611345
1700007032352632800,11.7716328125,-0.03044190001487732,-0.12680500970482825,0.05425071869082749
1700007032362577700,11.78157763671875,0.04771685994267463,-0.11558628107607365,0.034389651259966195
1700007032372522800,11.791522705078124,0.03227612970471382,-0.09685819973051547,0.0036758024359121915
1700007032382468600,11.801468505859376,-0.23539777863174677,-0.015014613780379294,0.025694522824697193
1700007032392413700,11.81141357421875,-0.5661740398302674,-0.028819851770997044,0.1045138655828312
1700007032402358800,11.82135888671875,-0.0874327842593193,-0.1094008704394102,0.17526892515514045
1700007032412303600,11.8313037109375,0.3816296656012535,-0.05737316156029701,0.11192209601271896
1700007032422249000,11.8412490234375,0.13943769678473472,-0.06577098754942416,-0.008725888899713754
1700007032432194800,11.85119482421875,-0.2656453251183033,-0.09798106628060341,-0.07443298090007155
1700007032442139600,11.8611396484375,-0.15163403827399013,-0.12178688928186893,-0.07163304798323661
1700007032452084700,11.871084716796876,0.011506897920370102,-0.10013502944409847,-0.0025542145274579523
1700007032462029600,11.881029541015625,-0.006939736135303974,-0.1281231065660715,0.0625584187110886
1700007032471974700,11.890974609375,-0.01961889270544052,-0.14680968685746193,0.09861169233433902
1700007032481920800,11.900920654296876,0.07430354583412409,-0.12725275347232817,0.041976580991316584
1700007032491865600,11.910865478515625,0.061870765240490434,-0.09019406566619873,-0.052323750949930393
1700007032501810700,11.920810791015626,0.009848024797439575,-0.07641688472628592,-0.10436402704967185
1700007032511755800,11.930755859375,-0.023025486278533933,-0.034981297010183335,-0.13457124152584002
1700007032521702000,11.940701904296875,-0.047996261405944825,0.00746317548751831,-0.09187845682287588
1700007032531646700,11.950646728515625,-0.06400543918162584,0.02113864961862564,-0.04910667033325881
1700007032541591600,11.960591552734375,-0.01846767684370279,0.0558703557819128,-0.04611057552350685
1700007032551537000,11.970536865234376,0.013032207791507244,0.07677753473222255,-0.055492206651903686
1700007032561481700,11.980481689453125,0.03243278157114982,0.07964636816680432,-0.04052596205789596
1700007032571427800,11.990427734375,-0.004930149878561496,0.0722878220975399,-0.03277237052274868
1700007032581372700,12.00037255859375,-0.0335559403821826,0.05073942263424396,-0.03664608841724694
1700007032591317800,12.01031787109375,0.06774199536144733,0.02551438048481941,-0.05168216511076316
1700007032601262800,12.020262939453126,0.14184475792646406,0.018379706299304962,-0.08423884705621748
1700007032611207700,12.030207763671875,0.08058861745297909,-0.008415946167707442,-0.10430049682678655
1700007032621153800,12.04015380859375,0.06432078874111175,-0.02965805616080761,-0.061059028732497245
1700007032631098600,12.0500986328125,0.05461158789247274,-0.023282091388106343,-0.030359774689376354
1700007032641043700,12.060043701171875,0.02099105784147978,-0.04757774373292923,-0.022763273412082344
1700007032650988800,12.06998876953125,0.031173429159820076,-0.07968143948018551,-0.039651517310924825
1700007032660933600,12.07993359375,0.040080081453919406,-0.08837561806738375,-0.047101650653779505
1700007032670879700,12.089879638671874,0.07882511491179466,-0.06229074421823024,-0.05116453444482758
1700007032680824800,12.099824951171875,0.07992021667212247,-0.03509703234434128,-0.08198892183811403
1700007032690769700,12.109769775390625,0.07738280714899301,-0.034115620091557504,-0.09267334266076795
1700007032700714800,12.11971484375,0.038915129327774044,-0.04482581467628479,-0.06776382360076531
1700007032710660600,12.12966064453125,0.07666939818263054,-0.027354455393552777,-0.07603330136933363
1700007032720605700,12.139605712890624,0.03364157283902168,-0.009240706554055213,-0.05700068411924876
1700007032730550800,12.14955078125,0.03026888153553009,-0.002760696884989738,-0.02711244506491348
1700007032740495600,12.15949560546875,0.05928454813957214,0.024831074395775792,-0.01280087412050925
1700007032750441000,12.16944091796875,0.02874561749100685,0.03785188401043415,0.00460900076595135
1700007032760386800,12.17938671875,0.009952069693803786,0.049202130064368244,0.0303261738138739
1700007032770331600,12.18933154296875,0.016316636289656163,0.04385200120806694,0.0561280660031829
1700007032780276700,12.19927685546875,0.024653672002255916,0.03566401857733726,0.034161139733716844
1700007032790221600,12.2092216796875,0.04412321936488151,0.0265431390106678,0.010887286450993268
1700007032800166700,12.219166748046876,0.1043795351460576,0.02941314148902893,0.0050248332915361965
1700007032810112800,12.22911279296875,0.15793518424481154,0.013826865300536156,0.03687554979156703
1700007032820057600,12.2390576171875,0.22301555918157098,0.004164133942127227,0.0655136335211806
1700007032830002700,12.249002685546875,0.14753332495689392,0.023522914406657217,0.05948899380364455
1700007032839947800,12.25894775390625,-0.2657543384507298,0.06952011094987393,0.09952453286293894
1700007032849894000,12.268893798828126,-0.4531210766240954,-0.025566987454891204,0.14576245196000673
1700007032859838700,12.278838623046875,0.20976737055182457,-0.0812719235420227,0.1290703608209267
1700007032869783600,12.288783447265626,0.508016449894011,0.00743921009004116,0.025876400463934985
1700007032879729000,12.29872900390625,-0.023568799374997614,-0.035245500904321665,-0.08002713851216249
