time,seconds_elapsed,z,y,x
1700007020617306600,0.036306640625,-8.938494708561898,-4.0139141545653345,-0.4027322940584272
1700007020627251700,0.046251708984375,-8.943267914313077,-4.004010307927429,-0.39528248950913547
1700007020637196500,0.056196533203125,-8.946967937874794,-3.9965874644502994,-0.38656693934034553
1700007020647142700,0.066142578125,-8.949049420323968,-3.992845355312526,-0.37693281302191317
1700007020657087500,0.07608740234375,-8.949298426648975,-3.9932860848173495,-0.3662190747732296
1700007020667032600,0.086032470703125,-8.948232843244075,-3.9966611142084,-0.3552682033004239
1700007020676977700,0.095977783203125,-8.946537145242095,-4.0012519491299985,-0.3461776092741638
1700007020686922500,0.105922607421875,-8.94525762682557,-4.004619379736483,-0.340263782120496
1700007020696867600,0.11586767578125,-8.944547432729602,-4.006381128711999,-0.33818482042197134
1700007020706813700,0.125813720703125,-8.944303102579712,-4.00684465457052,-0.33914683385454114
1700007020716758500,0.135758544921875,-8.944720451208948,-4.005811219869554,-0.3403428387060761
1700007020726703600,0.14570361328125,-8.9458906640321,-4.003268841910362,-0.33950127331539987
1700007020736648400,0.1556484375,-8.948063331896066,-3.9987423043966293,-0.3355751859128475
1700007020746593800,0.16559375,-8.951365880572796,-3.9918858626306055,-0.3290562690054998
1700007020756539600,0.17553955078125,-8.955431814837455,-3.9833442442566156,-0.32185565344430506
1700007020766484500,0.185484375,-8.959683042541146,-3.9742862007930873,-0.3154518508166075
1700007020776429600,0.1954296875,-8.96312412290573,-3.9668315008729693,-0.31151988166254013
1700007020786374700,0.205374755859375,-8.964750847324728,-3.9632074651569127,-0.3108307668872177
1700007020796319500,0.215319580078125,-8.964072217410802,-3.9646731537953017,-0.31170977821145207
1700007020806265600,0.225265625,-8.961420826119184,-3.9704856394663453,-0.31395510945282873
1700007020816210400,0.23521044921875,-8.957378857252001,-3.9793563436642287,-0.3169656894456595
1700007020826155800,0.24515576171875,-8.952275396633148,-3.990594653776288,-0.3198444232197478
1700007020836100600,0.2551005859375,-8.946483953750134,-4.00329105374217,-0.3232208773829043
1700007020846045400,0.26504541015625,-8.940348227474093,-4.016605877867341,-0.32777737164348364
1700007020855990500,0.274990478515625,-8.933904458162187,-4.030479504919052,-0.33312202060706914
1700007020865936600,0.2849365234375,-8.927061460399628,-4.045175846530497,-0.33839046252928673
1700007020875881700,0.2948818359375,-8.919830924624204,-4.060645802862942,-0.3437323350138962
1700007020885826600,0.30482666015625,-8.911929942241311,-4.0774753571107984,-0.349408079095371
1700007020895771400,0.314771484375,-8.903312336021662,-4.095756571471691,-0.3552324743999168
1700007020905716700,0.324716796875,-8.894524633932113,-4.114288837984204,-0.361172787701711
1700007020915662600,0.33466259765625,-8.886146097165346,-4.131896098606288,-0.366374813324213
1700007020925607700,0.344607666015625,-8.878855940157175,-4.147230445860326,-0.3698352194437757
1700007020935552500,0.354552490234375,-8.873038778311013,-4.159522356678545,-0.37141127312146127
1700007020945497600,0.36449755859375,-8.868739619812368,-4.168643528506159,-0.3718248223584145
1700007020955442700,0.374442626953125,-8.865717057120799,-4.175129675655067,-0.37112105800323186
1700007020965388500,0.384388427734375,-8.863556079694629,-4.179866348788142,-0.36942722316477444
1700007020975333600,0.394333740234375,-8.861932277885078,-4.1834184883117675,-0.3681751407444477
1700007020985278700,0.40427880859375,-8.86062470241785,-4.186135638315975,-0.3687560093723237
1700007020995223600,0.4142236328125,-8.859409481409191,-4.188526040583849,-0.3708033703561872
1700007021005168600,0.424168701171875,-8.858454957163334,-4.190324322177469,-0.3732822180924937
1700007021015113500,0.434113525390625,-8.858243360239268,-4.190601093292236,-0.375202335967496
1700007021025059600,0.4440595703125,-8.85903947905302,-4.18885015797168,-0.3759607896519825
1700007021035004700,0.454004638671875,-8.860843898126483,-4.185146627278626,-0.37467199195045975
1700007021044949500,0.463949462890625,-8.863397089740634,-4.180139612771571,-0.3701524686994031
1700007021054894600,0.47389453125,-8.866728279989957,-4.17367918458581,-0.3632053164426237
1700007021064839700,0.483839599609375,-8.871039713448285,-4.165220568320155,-0.3549280480932444
1700007021074785800,0.493785888671875,-8.876333728203177,-4.154657380990684,-0.3462762108104303
1700007021084730600,0.503730712890625,-8.882420939162373,-4.142331275641918,-0.33774072991628196
1700007021094675500,0.513675537109375,-8.888947710582613,-4.128967059417069,-0.3295878916641697
1700007021104620800,0.523620849609375,-8.895243595856428,-4.116005286513269,-0.3217620934093371
1700007021114565600,0.533565673828125,-8.901097582581638,-4.103939877927303,-0.3138927482737228
1700007021124510500,0.543510498046875,-8.906331391581892,-4.093192566202581,-0.3056523596023209
1700007021134456600,0.55345654296875,-8.91073576402068,-4.084272177644074,-0.29645631417389956
1700007021144401700,0.563401611328125,-8.914269198843837,-4.077282464887202,-0.2862780345087871
1700007021154346800,0.5733466796875,-8.916713669386505,-4.072614180815219,-0.2764383574145846
1700007021164291600,0.58329150390625,-8.918075020867585,-4.070214426197111,-0.26773236052542926
1700007021174236400,0.593236328125,-8.918371373465657,-4.070142822265625,-0.258786234737467
1700007021184182500,0.6031826171875,-8.917010021984577,-4.073953904986381,-0.245383622730989
1700007021194127600,0.613127685546875,-8.91204100140035,-4.085982196432352,-0.2250763459025882
1700007021204072700,0.62307275390625,-8.901335482990742,-4.11052860866785,-0.20040524784149602
1700007021214017500,0.633017578125,-8.883585306766628,-4.149799127304553,-0.1773957445833832
1700007021223962600,0.642962646484375,-8.859211913010478,-4.202114420953393,-0.16426296249423175
1700007021233908500,0.652908447265625,-8.830639898520708,-4.26189230556786,-0.16266928182831034
1700007021243853300,0.662853271484375,-8.800260542348028,-4.323764824374019,-0.17565001516090706
1700007021253798100,0.672798095703125,-8.769569051486254,-4.384456316702067,-0.20392662690067662
1700007021263743500,0.682743408203125,-8.7387290920645,-4.443454449115693,-0.24639195952331647
1700007021273688300,0.692688232421875,-8.707031054508686,-4.50212495701015,-0.2981067665283568
1700007021283633200,0.702633056640625,-8.6711770663172,-4.566715502603352,-0.35521734989602116
1700007021293579300,0.712579345703125,-8.626815362021327,-4.645438618445396,-0.4102952035933733
1700007021303524400,0.7225244140625,-8.570705936786531,-4.742878709717095,-0.46741888390462843
1700007021313469400,0.732469482421875,-8.501467565387486,-4.8582332278639075,-0.5412911987146363
1700007021323414300,0.742414306640625,-8.418627954137325,-4.989582310739159,-0.6333701648119837
1700007021333359400,0.752359375,-8.325856731459497,-5.131052974656224,-0.723044590518251
1700007021343305500,0.762305419921875,-8.229082118359207,-5.274530302220582,-0.7949374950140714
1700007021353250300,0.772250244140625,-8.133316974562407,-5.413879151678085,-0.8422878597319126
1700007021363195400,0.7821953125,-8.041981922167539,-5.545451521915197,-0.8630612562347203
1700007021373140200,0.79214013671875,-7.957835904493927,-5.666875423103571,-0.8542592333588749
1700007021383085300,0.802085205078125,-7.8836670909553765,-5.775267408761382,-0.8151401058916002
1700007021393030400,0.812030517578125,-7.822409196916222,-5.866735147625207,-0.74948068895787
1700007021402976300,0.821976318359375,-7.774086772295832,-5.941338845449685,-0.6591301906209439
1700007021412921300,0.83192138671875,-7.734803978699445,-6.003970950451493,-0.5436276057729498
1700007021422866400,0.841866455078125,-7.698556022754311,-6.061238313549756,-0.40497744263671337
1700007021432811300,0.851811279296875,-7.659224129319191,-6.119264386060833,-0.24754527601059526
1700007021442756400,0.86175634765625,-7.61252667555213,-6.1816989226639265,-0.08013777754609473
1700007021452702200,0.8717021484375,-7.556237217575311,-6.2502919818967575,0.08669124517701565
1700007021462647600,0.8816474609375,-7.488564780318737,-6.32703152270615,0.24586638301294295
1700007021472592400,0.89159228515625,-7.407264215204119,-6.414798068964481,0.3913825229285285
1700007021482537200,0.901537109375,-7.308780460098386,-6.517746402263641,0.5206671475546434
1700007021492482300,0.911482421875,-7.190737433519959,-6.637708998727798,0.6360092080786823
1700007021502428400,0.921428466796875,-7.053811427295208,-6.771856772410869,0.7457129339221864
1700007021512373500,0.93137353515625,-6.899609292098879,-6.915597134825587,0.8604035082675516
1700007021522318300,0.941318359375,-6.732073043555021,-7.062663426792621,0.9840545109208673
1700007021532263200,0.95126318359375,-6.5575184406816955,-7.207160745054483,1.1073258666068315
1700007021542208500,0.96120849609375,-6.38257337718606,-7.344919694972038,1.2187273362789302
1700007021552153300,0.9711533203125,-6.213077811267971,-7.47250036522448,1.3152115150652826
1700007021562099500,0.981099365234375,-6.05725888852477,-7.58656455129981,1.38709367897138
1700007021572044300,0.991044189453125,-5.922579199922084,-7.683648376479744,1.4335219604082405
1700007021581989400,1.0009892578125,-5.810683005535602,-7.762022240492701,1.468794057058543
1700007021591934500,1.0109345703125,-5.71829464469552,-7.824700522723793,1.4985145109310745
1700007021601879300,1.02087939453125,-5.641181009876727,-7.876760380306839,1.5179273596704006
1700007021611825400,1.030825439453125,-5.575558490887284,-7.923512779131531,1.5170629979260264
1700007021621770500,1.0407705078125,-5.516316028323769,-7.970321876579523,1.4881564907848834
1700007021631715300,1.05071533203125,-5.45642883811593,-8.021759218350052,1.431484609361738
1700007021641660400,1.060660400390625,-5.37241141525805,-8.091761559858918,1.3531331033110618
1700007021651605200,1.070605224609375,-5.221558005967736,-8.203449079930781,1.2685215139523147
1700007021661550300,1.08055029296875,-4.998879715916514,-8.35544990569055,1.169631954524666
1700007021671496400,1.090496337890625,-4.733501517301797,-8.525961370652913,1.035533792136982
1700007021681441300,1.100441162109375,-4.451278859131038,-8.694352190199494,0.874504587399587
1700007021691386400,1.110386474609375,-4.160204785984754,-8.85245308640003,0.7051015951357782
1700007021701331500,1.12033154296875,-3.868274680531025,-8.9950910405308,0.5432950858829543
1700007021711276300,1.1302763671875,-3.585070902368426,-9.119221278068423,0.396803086672537
1700007021721222400,1.140222412109375,-3.3150399095118046,-9.225490864744781,0.2668689303628169
1700007021731167200,1.150167236328125,-3.0552441872045395,-9.317260216903685,0.15662753571234642
1700007021741112300,1.1601123046875,-2.801574546562135,-9.397667048048973,0.07357608094294556
1700007021751057400,1.170057373046875,-2.5474106926620004,-9.469987018850444,0.020578465302463152
1700007021761002200,1.180002197265625,-2.285367191427946,-9.536635373756289,-0.007037394673365634
1700007021770948400,1.1899482421875,-2.010826173800975,-9.598269699892402,-0.012882325875863897
1700007021780893400,1.1998935546875,-1.7227239560723304,-9.654149992546438,0.0008067087777792039
1700007021790838300,1.20983837890625,-1.4253835160076618,-9.702461311250925,0.029984676032979038
1700007021800783400,1.219783447265625,-1.1284258647155017,-9.741277656379342,0.0675662734683603
1700007021810728200,1.229728271484375,-0.8435854252617806,-9.769694772568345,0.1087517406146042
1700007021820673500,1.239673583984375,-0.578183297782205,-9.788433959829806,0.15042998711331745
1700007021830619400,1.249619384765625,-0.3325724239002913,-9.799216635128856,0.187509324981831
1700007021840564200,1.259564208984375,-0.10326705299266613,-9.803705763241648,0.2170045552637428
1700007021850509300,1.26950927734375,0.1141788436972536,-9.80306629629433,0.23927535071745512
1700007021860454400,1.279454345703125,0.3228235120957717,-9.798031809258461,0.2544181391884573
1700007021870399200,1.289399169921875,0.5236345459928736,-9.789113174265623,0.263553303008806
1700007021880345300,1.299345458984375,0.7164280949879437,-9.776814249184728,0.26645581951728087
1700007021890290200,1.309290283203125,0.8990841712523251,-9.761835291239619,0.26194323746366427
1700007021900235500,1.319235595703125,1.0676563387151807,-9.745196291127801,0.24824913169732316
1700007021910180400,1.329180419921875,1.216990210288018,-9.728272044333815,0.22370286559229716
1700007021920125200,1.339125244140625,1.342010382402688,-9.712570617333053,0.18802858134927228
1700007021930070500,1.349070556640625,1.4432196169495581,-9.698769470995664,0.14624866457437163
1700007021940016400,1.359016357421875,1.5267514482475817,-9.686534258800744,0.10224925425224937
1700007021949961500,1.36896142578125,1.5968115112930534,-9.675589670938253,0.0593487542158924
1700007021959906300,1.37890625,1.6476532252579927,-9.66721990199983,0.021291205265256574
1700007021969851100,1.38885107421875,1.6736530511721968,-9.662772859463095,-0.010484118185803526
1700007021979796500,1.39879638671875,1.6734133971974252,-9.66274480241239,-0.03788579997976776
1700007021989742300,1.408742431640625,1.6530167981177568,-9.666116909193992,-0.06382776279347017
1700007021999687400,1.4186875,1.6248999800495803,-9.670680271586775,-0.08963768302560783
1700007022009632300,1.42863232421875,1.5979310168422758,-9.674917470765113,-0.11394029483417979
1700007022019577300,1.438577392578125,1.5743207164131103,-9.67852455534637,-0.13450413110638038
1700007022029522400,1.4485224609375,1.5512664424315095,-9.682010059374571,-0.15038471406633033
1700007022039467300,1.45846728515625,1.5263849530227482,-9.685783148172497,-0.16165444222996012
1700007022049413400,1.468413330078125,1.5034208415426313,-9.689197925052046,-0.1718911923503503
1700007022059358500,1.4783583984375,1.4886742310486734,-9.691285837242006,-0.18223275455208493
1700007022069303300,1.48830322265625,1.4825649543881416,-9.692112351194023,-0.18805554242143407
1700007022079248400,1.498248291015625,1.479348184298724,-9.692586982968448,-0.1888092468655668
1700007022089193500,1.508193359375,1.4737565017715095,-9.693454997974634,-0.18807813784573227
1700007022099139300,1.518139404296875,1.465478795030713,-9.694715811690688,-0.1877495634784922
1700007022109084400,1.52808447265625,1.4535272220827637,-9.696489835625886,-0.18912063263598827
1700007022119029200,1.538029296875,1.4379425533294676,-9.698755442470311,-0.19203251976100727
1700007022128974300,1.547974365234375,1.4194677160926161,-9.701403326630592,-0.19562807830125092
1700007022138919400,1.55791943359375,1.3992730693258344,-9.704252286320925,-0.1997061048625037
1700007022148864300,1.5678642578125,1.3777707009613513,-9.707240362221002,-0.20394144087731836
1700007022158810400,1.577810302734375,1.353641929616034,-9.710547002550959,-0.20809848749153315
1700007022168755200,1.587755126953125,1.3248451664596794,-9.714434657639265,-0.21191353400135413
1700007022178700500,1.597700439453125,1.290916739503294,-9.71893781427741,-0.21483742209142073
1700007022188645400,1.607645263671875,1.2603344081044197,-9.722956986790894,-0.21461186970723792
1700007022198590200,1.617590087890625,1.2367338984169065,-9.726125095432996,-0.20823482722230255
1700007022208536300,1.627536376953125,1.2180259830765425,-9.728736739236115,-0.1962236513079144
1700007022218481400,1.6374814453125,1.2021093789551407,-9.731007606777549,-0.18114132431987673
1700007022228426500,1.647426513671875,1.187210354378447,-9.733113639146088,-0.16551235976712778
1700007022238371000,1.65737109375,1.17179249355942,-9.735210903686285,-0.15157017012438737
1700007022248316200,1.667316162109375,1.1553554457604884,-9.737375972765683,-0.13811674124612472
1700007022258262300,1.67726220703125,1.138679986095801,-9.739542795410753,-0.12299266660874708
1700007022268207400,1.687207275390625,1.121060669709742,-9.741810155820845,-0.10381147120082751
1700007022278152200,1.697152099609375,1.1016245131600648,-9.74424468949139,-0.08059993343143723
1700007022288097000,1.707096923828125,1.0804964580006897,-9.746792620408534,-0.05442398376534693
1700007022298042400,1.71704248046875,1.057662694901973,-9.74940952490866,-0.02735208762324182
1700007022307987200,1.7269873046875,1.0324283734675497,-9.752154439702629,-0.0005910224124207161
1700007022317933300,1.736933349609375,1.0051122042577714,-9.754974757820367,0.025136427717632612
1700007022327878100,1.746878173828125,0.9773843855071812,-9.757694538173078,0.05000936849375721
1700007022337823200,1.7568232421875,0.9512507040802389,-9.760119134971498,0.07459389794967136
1700007022347768300,1.766768310546875,0.9280420432545244,-9.762138073578477,0.09902030053469352
1700007022357713200,1.776713134765625,0.9094777741685509,-9.76360288543403,0.12368093200069852
1700007022367659300,1.7866591796875,0.8976930822201072,-9.764358087715506,0.1477985608974937
1700007022377604400,1.796604248046875,0.8948247602421789,-9.764245274990797,0.170895386246033
1700007022387549200,1.806549072265625,0.9005890959225594,-9.763311793532967,0.19254709995333105
1700007022397494300,1.816494384765625,0.9137129275202751,-9.761669287022947,0.21293960737977174
1700007022407439000,1.826439208984375,0.9333310165081172,-9.759353995817898,0.2329882880709134
1700007022417384200,1.83638427734375,0.9563684854853898,-9.756619602417945,0.25316132579408585
1700007022427330300,1.846330322265625,0.9829702958807348,-9.753426943856477,0.2735137569384649
1700007022437275100,1.856275146484375,1.0175191928230225,-9.74926222539246,0.29488575865523886
1700007022447220200,1.86622021484375,1.057903225659579,-9.744230660966037,0.3181329065941274
1700007022457165300,1.876165283203125,1.0987222889125345,-9.738904497507214,0.34198289753068234
1700007022467110100,1.886110107421875,1.137322872398421,-9.733650230240821,0.3646122971637174
1700007022477056300,1.89605615234375,1.1721455447807907,-9.72863444790542,0.38748361579384655
1700007022487001000,1.9060009765625,1.2027244421135634,-9.723932553824781,0.4110955236582085
1700007022496946400,1.915946533203125,1.2298755569547415,-9.719541625389455,0.43396223917845633
1700007022506891300,1.925891357421875,1.256057169176638,-9.715254741850496,0.45446544043775644
1700007022516836000,1.935836181640625,1.2841723798096178,-9.710812960010767,0.47051323319077487
1700007022526781400,1.945781494140625,1.3161116787754,-9.706001175814867,0.48142333426177497
1700007022536727300,1.955727294921875,1.3524059580802916,-9.700701900362969,0.48760381299499417
1700007022546672000,1.965672119140625,1.3902758161388338,-9.695254156351089,0.4894819548917934
1700007022556617200,1.9756171875,1.424777805199474,-9.690335404649376,0.48764374314658343
1700007022566562000,1.98556201171875,1.451687001043558,-9.686534843322635,0.48378330485876647
1700007022576507400,1.99550732421875,1.467964035975188,-9.684289110222458,0.4795878624629229
1700007022586453200,2.005453369140625,1.472005128059536,-9.683879360377787,0.4754663255535066
1700007022596398000,2.015398193359375,1.4651934022180735,-9.685079968339204,0.47203277090825135
1700007022606343200,2.02534326171875,1.4507131875753403,-9.687408703547716,0.46900903917290265
1700007022616288300,2.035288330078125,1.4309358894377946,-9.690501993387937,0.46584553364068265
1700007022626233300,2.0452333984375,1.4071446794837712,-9.694157593286036,0.46220520437695084
1700007022636179200,2.05517919921875,1.3811432461343705,-9.698118898132442,0.45749717281647023
1700007022646124000,2.0651240234375,1.353930975690484,-9.702233347713946,0.4515810806404799
1700007022656069400,2.0750693359375,1.3252512630425393,-9.706515555077791,0.4445821981964633
1700007022666014200,2.08501416015625,1.2960406583882869,-9.710829326623678,0.43639764963183547
1700007022675959000,2.094958984375,1.266238079190254,-9.715183430179954,0.426901433946751
1700007022685904400,2.104904296875,1.2355230613224208,-9.719602415665983,0.4161833117838949
1700007022695850200,2.114850341796875,1.2046006112489849,-9.723980484619736,0.40437786930836733
1700007022705795300,2.12479541015625,1.174233018579334,-9.728202486228943,0.39197015009075403
1700007022715740200,2.134740234375,1.1448119860447943,-9.732255561012028,0.37813261726573105
1700007022725685000,2.14468505859375,1.1174394835378973,-9.736051446163653,0.3619227292861789
1700007022735630300,2.15463037109375,1.092453291645646,-9.739577282202243,0.3429018024738878
1700007022745576200,2.164576171875,1.0699423307605087,-9.742839498868584,0.32048454775419083
1700007022755521300,2.174521240234375,1.049555010965839,-9.745871413910388,0.2946584161727689
1700007022765466000,2.184466064453125,1.0303271634045987,-9.748717450991272,0.26700327906589955
1700007022775411200,2.1944111328125,1.0119272911000996,-9.751402744552493,0.2378068125348538
1700007022785356300,2.204356201171875,0.9946604414135217,-9.753875272145867,0.20726640231525525
1700007022795302100,2.21430224609375,0.9794061005931347,-9.75603391148448,0.17602770763318984
1700007022805247200,2.224247314453125,0.9662909637585282,-9.757862880477308,0.14424338003341108
1700007022815192300,2.2341923828125,0.9542304505433886,-9.759461547845602,0.11301775489547289
1700007022825137200,2.24413720703125,0.9422448291953652,-9.760925190657376,0.08294949223226868
1700007022835082200,2.254082275390625,0.9295984058510511,-9.762335057455301,0.05507707737921737
1700007022845027300,2.26402734375,0.9165192901778966,-9.76368004232347,0.030570090688520575
1700007022854973400,2.273973388671875,0.9022200581252574,-9.765054837808012,0.00849952023984515
1700007022864918300,2.283918212890625,0.8863771768271923,-9.766503283050655,-0.012060437866614666
1700007022874863000,2.293863037109375,0.8747263403914868,-9.767513921397924,-0.030251492009311914
1700007022884808200,2.30380810546875,0.8688725728619843,-9.767977447256445,-0.0453991712845629
1700007022894753300,2.313753173828125,0.8657447231650351,-9.768183198961616,-0.05878759950206149
1700007022904699400,2.323699462890625,0.8631671277619898,-9.768317638996242,-0.07282389260246418
1700007022914644200,2.333644287109375,0.8622493553299456,-9.768268539157509,-0.08858761685024946
1700007022924589000,2.343589111328125,0.8645151083048432,-9.767905551064015,-0.10490143099515699
1700007022934534400,2.353534423828125,0.8699334070265292,-9.767255562722683,-0.11958255677116103
1700007022944479200,2.363479248046875,0.8772829660717397,-9.766448922514915,-0.13126154158911668
1700007022954424000,2.373424072265625,0.8848113157499581,-9.765644035872816,-0.14029248698316513
1700007022964370200,2.3833701171875,0.8925471706990152,-9.764842656362056,-0.14691634383602067
1700007022974315300,2.393315185546875,0.8997177929807454,-9.764095052865146,-0.15283313926490955
1700007022984260400,2.40326025390625,0.9054476418696343,-9.763453247830272,-0.1599113248896785
1700007022994205200,2.413205078125,0.9113757898095994,-9.762765850088,-0.16783583427863194
1700007023004150300,2.423150390625,0.91993976614587,-9.761801388970017,-0.1770195499484427
1700007023014096400,2.433096435546875,0.933797391910851,-9.76030325936675,-0.18679692066246642
1700007023024041200,2.443041259765625,0.9542598227683454,-9.758142281940579,-0.19606824155049396
1700007023033986300,2.452986328125,0.9792056826502085,-9.755516609612107,-0.20360678382916375
1700007023043931100,2.46293115234375,1.0055599480252713,-9.752661804702877,-0.21177567816693335
1700007023053876200,2.472876220703125,1.0327600896399467,-9.749601248088478,-0.22146811054386198
1700007023063821300,2.4828212890625,1.0626180522870272,-9.746126265454292,-0.23291085718683896
1700007023073767200,2.49276708984375,1.0970816090334206,-9.742021168223022,-0.2445526152669452
1700007023083712300,2.502712158203125,1.1364039309225975,-9.73726958978176,-0.25411654415968804
1700007023093657300,2.5126572265625,1.1788678387731313,-9.732017660602926,-0.2616349204331636
1700007023103602200,2.522602294921875,1.222478870832175,-9.726481069263816,-0.267380496614147
1700007023113547300,2.53254736328125,1.268631111806631,-9.72048621276319,-0.27038806266598403
1700007023123493000,2.5424931640625,1.31827923207283,-9.713875270190835,-0.270471229171101
1700007023133438200,2.552438232421875,1.3689853369593619,-9.7069288120538,-0.2679642878514714
1700007023143383300,2.56238330078125,1.4163403778523207,-9.700223761457204,-0.26467085406295954
1700007023153328000,2.572328125,1.461560160282254,-9.693584761834144,-0.2620557579274289
1700007023163273200,2.582273193359375,1.507433292054385,-9.686590372902154,-0.2607911265527829
1700007023173219300,2.59221923828125,1.5552926292076705,-9.679035427477956,-0.26024878157069903
1700007023183164200,2.6021640625,1.6038493009753525,-9.671106972566246,-0.26025058993529526
1700007023193109200,2.612109130859375,1.6496030441515146,-9.663408234757185,-0.26022119944402944
1700007023203054000,2.62205419921875,1.6886875386968254,-9.656657006931304,-0.26017679404672234
1700007023212999200,2.631999267578125,1.719417169611901,-9.651232059273124,-0.2601809952978045
1700007023222944300,2.6419443359375,1.7432985420674085,-9.646942837646604,-0.2603494654661976
1700007023232890000,2.65189013671875,1.762049273636192,-9.643514616763591,-0.2611565440653823
1700007023242835200,2.661835205078125,1.7762902726955712,-9.640864979037643,-0.2624930168335326
1700007023252780500,2.671780517578125,1.7864986552380024,-9.638903323575853,-0.26527506703380493
1700007023262725400,2.681725341796875,1.7918449847020208,-9.637806760510802,-0.2690220532760955
1700007023272670200,2.691670166015625,1.7926067628547548,-9.637546648269891,-0.2732562202471308
1700007023282616300,2.7016162109375,1.7919253564618527,-9.637570029145479,-0.2768385539796203
1700007023292561400,2.7115615234375,1.7885167170621454,-9.638099021455645,-0.28045597729180005
1700007023302506500,2.721506591796875,1.779176495656371,-9.63973334465921,-0.2836101670064032
1700007023312451300,2.731451416015625,1.7696463046364486,-9.641467621105908,-0.2843194295206107
1700007023322396200,2.741396240234375,1.7630258635833858,-9.642776950138806,-0.281045467617549
1700007023332341500,2.751341552734375,1.754697449568659,-9.644518240848184,-0.2732934104523621
1700007023342287400,2.761287353515625,1.7390385465353726,-9.647664722180366,-0.2620657678647898
1700007023352232400,2.771232421875,1.7164855000741779,-9.65206149583459,-0.24858883024677633
1700007023362177300,2.78117724609375,1.6906433489397168,-9.657024671199917,-0.23234693969376383
1700007023372122400,2.791122314453125,1.6625013964302837,-9.662363109618425,-0.21263905353061854
1700007023382067500,2.8010673828125,1.6314992321841417,-9.668113635969162,-0.19018508352972566
1700007023392013300,2.811013427734375,1.5975452323950827,-9.674218967106938,-0.16648434660444036
1700007023401958400,2.82095849609375,1.5619259297423065,-9.680431265750526,-0.1414289162677247
1700007023411903500,2.830903564453125,1.526261472773552,-9.68646703878343,-0.11517364515457301
1700007023421848300,2.840848388671875,1.4916796964749692,-9.692133978503941,-0.0884079677007161
1700007023431793400,2.85079345703125,1.459746096597612,-9.69719359998107,-0.06285352006698958
1700007023441738200,2.86073828125,1.4312949320085346,-9.70155822493136,-0.03943163661570288
1700007023451684400,2.870684326171875,1.4070121391452848,-9.705175246384739,-0.017161636888078646
1700007023461629400,2.88062939453125,1.3874740565910935,-9.708000240677595,0.004863604002216015
1700007023471574300,2.89057421875,1.3723260256893932,-9.71011504087448,0.027266667512245473
1700007023481519400,2.900519287109375,1.3612294621355832,-9.711587451514601,0.04986140225727576
1700007023491464400,2.91046435546875,1.3540620547242461,-9.712450790345668,0.07198009415550623
1700007023501410300,2.920410400390625,1.351333798804134,-9.712659464660286,0.09248531840853393
1700007023511355400,2.93035546875,1.3529736749656498,-9.712246792206168,0.11016863080835901
1700007023521300200,2.94030029296875,1.3607567300572991,-9.711007021278142,0.12279473288385197
1700007023531245300,2.950245361328125,1.375229930437356,-9.708877608034014,0.12981225609625688
1700007023541190400,2.9601904296875,1.3936978995420037,-9.706201666823029,0.13281719179959037
1700007023551136300,2.97013623046875,1.4136194284558294,-9.703302438250184,0.13404717198596336
1700007023561081300,2.980081298828125,1.4335967792101203,-9.700373983582853,0.13387395257721654
1700007023571026400,2.9900263671875,1.4523954415738582,-9.697598673650623,0.13226509260847233
1700007023580971300,2.99997119140625,1.4698516032874582,-9.69500748811364,0.12946026432081126
1700007023590916400,3.009916259765625,1.4874047956347465,-9.692375386044382,0.1259645950916223
1700007023600861200,3.019861083984375,1.5069533995829523,-9.689407768410444,0.12181550345499999
1700007023610807300,3.029807373046875,1.5307940016366541,-9.685735217377543,0.11653823890550993
1700007023620752400,3.03975244140625,1.5608604924678802,-9.68102338642478,0.10893096050587482
1700007023630697200,3.049697265625,1.5976117217600345,-9.675140758126973,0.09839165637549012
1700007023640642300,3.059642333984375,1.641701331116259,-9.667877489125727,0.08562921456922777
1700007023650587400,3.06958740234375,1.6927691089220345,-9.659175711753964,0.0722135010525817
1700007023660533500,3.079533447265625,1.7484630852237342,-9.649338792872427,0.059450360559998076
1700007023670478300,3.089478271484375,1.8051041331171989,-9.638960606721042,0.04915568797360174
1700007023680423200,3.099423095703125,1.8591196548126636,-9.628723290345071,0.04172501738304272
1700007023690368500,3.109368408203125,1.9104490061640738,-9.618691725674271,0.0362552738851984
1700007023700313300,3.119313232421875,1.9635298773579297,-9.608009588140249,0.03302630418462213
1700007023710258200,3.129258056640625,2.022423088092357,-9.59579249612391,0.031088778517092575
1700007023720204300,3.139204345703125,2.0872252306096253,-9.581910685765743,0.029298287504282778
1700007023730149400,3.1491494140625,2.1533977846972645,-9.567271919560431,0.02439645268804161
1700007023740094500,3.159094482421875,2.2145227000065146,-9.553328149881958,0.014904729373339795
1700007023750039300,3.169039306640625,2.2732439151749015,-9.539534017807245,0.003179358119778044
1700007023759984000,3.178984130859375,2.332683215484768,-9.525172314977645,-0.008352132246209657
1700007023769930200,3.18893017578125,2.3865907467611134,-9.51179202440083,-0.02003830999417696
1700007023779875300,3.198875244140625,2.4274774684228,-9.50140448589921,-0.03252357882687356
1700007023789820400,3.2088203125,2.454170683428645,-9.494493099075555,-0.045138474521762686
1700007023799765200,3.21876513671875,2.472033380116522,-9.489801726388931,-0.055715352449868805
1700007023809710300,3.22871044921875,2.485449911050498,-9.486247248777747,-0.06355237078503705
1700007023819655400,3.238655517578125,2.495644557328522,-9.483538574340939,-0.06824825981657485
1700007023829601300,3.248601318359375,2.5012074521526695,-9.482066748222708,-0.06875118610372301
1700007023839546400,3.25854638671875,2.4993852051615715,-9.482573528701067,-0.06525555797372944
1700007023849491500,3.268491455078125,2.4895930022045967,-9.485190433201193,-0.05908333561220206
1700007023859436300,3.278436279296875,2.472221596165001,-9.489780099079013,-0.05106412454396486
1700007023869381400,3.28838134765625,2.4494893937446176,-9.495715918868779,-0.0421475673437817
1700007023879327200,3.2983271484375,2.424206483928114,-9.502236260548234,-0.03395873532968107
1700007023889272600,3.3082724609375,2.398499211219698,-9.508779398581385,-0.02681747385646449
1700007023899217400,3.318217529296875,2.372970363818109,-9.515196864408255,-0.02092405245329719
1700007023909162200,3.328162353515625,2.3481394355528056,-9.521364739388227,-0.01557786797810695
1700007023919107300,3.338107421875,2.3254630549728867,-9.52693464847505,-0.009953652012825477
1700007023929053200,3.34805322265625,2.304412083637714,-9.532053306663036,-0.004463014140713494
1700007023938998500,3.35799853515625,2.2845567518278953,-9.536834111198782,0.0007320246899285848
1700007023948943400,3.367943359375,2.2680391861386595,-9.540772035169601,0.005812895521352766
1700007023958888200,3.37788818359375,2.2549301137186584,-9.543874092838168,0.010777223947440507
1700007023968833500,3.38783349609375,2.24318677669391,-9.546636543288827,0.016061425127793336
1700007023978778400,3.3977783203125,2.2306815153859554,-9.549552722996474,0.022580407108867075
1700007023988724200,3.40772412109375,2.2184271600991488,-9.552387654161453,0.02973227217448875
1700007023998669300,3.41766943359375,2.2084403113529083,-9.554678979969024,0.03586591837458545
1700007024008614400,3.427614501953125,2.1996761362694204,-9.55668213648498,0.040468514515925195
1700007024018559500,3.4375595703125,2.1912892700657247,-9.558598199239373,0.043116978631517845
1700007024028504300,3.44750439453125,2.182766794783622,-9.560545826175808,0.04330526774523314
1700007024038450200,3.4574501953125,2.1743169463463126,-9.562481178152561,0.040928318613977166
1700007024048395500,3.4673955078125,2.1670739894807336,-9.564146481016278,0.03579951805789024
1700007024058340400,3.47734033203125,2.1614017890632153,-9.565456979092955,0.027395417591603473
1700007024068285400,3.487285400390625,2.157269657694548,-9.566416179513931,0.015538892241165739
1700007024078230300,3.497230224609375,2.1544735972352327,-9.567060907158256,0.0005966304547109757
1700007024088175400,3.50717529296875,2.152227718004584,-9.567550151979923,-0.015977775707130784
1700007024098121500,3.51712158203125,2.150353448565304,-9.56792950668633,-0.032947991951135916
1700007024108066300,3.52706640625,2.1482868714243173,-9.5683223053962,-0.04926977933994494
1700007024118011100,3.53701123046875,2.1461080660805103,-9.568723871934413,-0.06434419244958553
1700007024127956500,3.54695654296875,2.1455635839402674,-9.568744330200552,-0.0780618023891002
1700007024137901300,3.5569013671875,2.148231341844797,-9.568047580108045,-0.08922439865013584
1700007024147847400,3.566847412109375,2.153755219832808,-9.566741173684596,-0.0957510513393674
1700007024157792300,3.576792236328125,2.161326093478501,-9.565030278113484,-0.09613394057657569
1700007024167737300,3.5867373046875,2.167981751975417,-9.563569557911157,-0.09151089301896281
1700007024177682400,3.596682373046875,2.173481810696423,-9.562398760566115,-0.08297308317041024
1700007024187627300,3.606627197265625,2.182856226632744,-9.560364039868116,-0.07044572876165621
1700007024197573400,3.616573486328125,2.196639106661081,-9.557309912994503,-0.05487348109851591
1700007024207518500,3.6265185546875,2.210500458753109,-9.554185058972239,-0.03999961836254224
1700007024217463300,3.63646337890625,2.224704048411548,-9.550933363699912,-0.027974491554615087
1700007024227408400,3.646408447265625,2.2413659910075365,-9.547055060961842,-0.020252797561651093
1700007024237353500,3.656353515625,2.2623972347289323,-9.5420983153373,-0.017448819799005286
1700007024247298600,3.666298583984375,2.2882668583922086,-9.53592517966032,-0.019220534187753217
1700007024257244700,3.67624462890625,2.3190270305760206,-9.528477201741934,-0.025390692456357646
1700007024267189500,3.686189453125,2.3546903185009955,-9.519694175827503,-0.03568557738859672
1700007024277134300,3.69613427734375,2.3956869302779435,-9.509393146565555,-0.049757923616492186
1700007024287079700,3.70607958984375,2.442165480597317,-9.497452533403038,-0.06772314453050494
1700007024297024500,3.7160244140625,2.4924171197146174,-9.484218957820534,-0.08860442185457795
1700007024306970400,3.725970458984375,2.5434116861537097,-9.47044119235873,-0.11052442197608761
1700007024316915500,3.73591552734375,2.5914734140112996,-9.45712753727734,-0.1319917007608805
1700007024326860500,3.745860595703125,2.6362881227716803,-9.44439022077918,-0.15447412053812296
1700007024336805600,3.7558056640625,2.680826644939184,-9.431422602656482,-0.17840751544181258
1700007024346750500,3.76575048828125,2.7268405003562566,-9.417748882091045,-0.20176974112773313
1700007024356695300,3.7756953125,2.774841730198264,-9.403201301300525,-0.22453975480785593
1700007024366641400,3.785641357421875,2.8232918728515504,-9.388191948217154,-0.24752423322256653
1700007024376586500,3.79558642578125,2.87177357968688,-9.372837142696977,-0.27064079531803725
1700007024386531300,3.80553125,2.9199308768734333,-9.357281261646747,-0.2927411843745969
1700007024396476400,3.815476318359375,2.967081042844057,-9.341783248263598,-0.3128705656191334
1700007024406421500,3.82542138671875,3.010550766736269,-9.327218716338276,-0.3315561229972169
1700007024416367600,3.83536767578125,3.047987055683136,-9.3143802775532,-0.34992596548963334
1700007024426312400,3.8453125,3.078949764701724,-9.303480113354325,-0.3683919253002852
1700007024436257300,3.85525732421875,3.104009094895422,-9.29440599553883,-0.3866984202329069
1700007024446202600,3.86520263671875,3.124204033923149,-9.286876184555888,-0.4045496091460809
1700007024456147500,3.8751474609375,3.140971921111643,-9.280501973348855,-0.4206531872069463
1700007024466093600,3.885093505859375,3.1538094831138848,-9.2755347063303,-0.433984304879792
1700007024476038400,3.895038330078125,3.1605764930307862,-9.27271847986579,-0.44480343973170966
1700007024485983500,3.9049833984375,3.160295630262792,-9.272421542745828,-0.4529250060627237
1700007024495928600,3.914928466796875,3.153497348424792,-9.274484320494532,-0.45803610199876127
1700007024505873400,3.924873291015625,3.1408649536058304,-9.27866657461524,-0.46013745819218455
1700007024515818200,3.934818359375,3.1235487848848105,-9.28457784448564,-0.45871780065260825
1700007024525764400,3.944764404296875,3.1026807689011093,-9.291779738688469,-0.4545522054057568
1700007024535709400,3.95470947265625,3.0784225259572264,-9.30011034466028,-0.4490270853087306
1700007024545654500,3.964654541015625,3.051701984553039,-9.309209596917032,-0.44281456746943293
1700007024555599400,3.974599365234375,3.0229625045418738,-9.31887349731922,-0.4366507110774517
1700007024565544400,3.98454443359375,2.9932793139398095,-9.328746656557916,-0.4302887748301029
1700007024575490600,3.994490478515625,2.963827009484172,-9.338497650721669,-0.42259529771804805
1700007024585435400,4.004435302734375,2.934536033070087,-9.348180840346217,-0.4128142006769776
1700007024595380500,4.01438037109375,2.9055028308093545,-9.357790380212665,-0.4002864352762699
1700007024605325600,4.02432568359375,2.8749577626809475,-9.367805578270554,-0.3862520281722769
1700007024615270400,4.0342705078125,2.842216938073933,-9.378373149514198,-0.3719394617140293
1700007024625215500,4.044215576171875,2.8118577479064464,-9.38816330664456,-0.35530437059234826
1700007024635161300,4.054161376953125,2.7865023573756216,-9.396443059211968,-0.33561529872752727
1700007024645106400,4.0641064453125,2.7631241121366616,-9.404092697182298,-0.3139683342605829
1700007024655051500,4.074051513671875,2.7391388409152624,-9.411831182479858,-0.2914106298905797
1700007024664996400,4.083996337890625,2.7156583043456077,-9.41930546388328,-0.26880910464515906
1700007024674941400,4.09394140625,2.693503171160817,-9.42626361245811,-0.24696349406726656
1700007024684887300,4.10388720703125,2.6732427656814455,-9.432568265560269,-0.2254790632182732
1700007024694832600,4.11383251953125,2.655791280142963,-9.437987367999552,-0.20391685442533342
1700007024704777500,4.123777587890625,2.6411571901127693,-9.442517412644625,-0.18308290510801598
1700007024714722300,4.133722412109375,2.628136088237166,-9.446507943585514,-0.1635935022674501
1700007024724667600,4.143667724609375,2.6154630691468714,-9.450317857262492,-0.14570439249668268
1700007024734613500,4.153613525390625,2.6024732391923666,-9.454137123289703,-0.12960497002112678
1700007024744558600,4.16355859375,2.589013745899498,-9.458013672462105,-0.11563183725085109
1700007024754503400,4.17350341796875,2.575548991909623,-9.4618282623142,-0.10368358877114951
1700007024764448500,4.183448486328125,2.562303141367435,-9.465518933525681,-0.09462309762220829
1700007024774393600,4.1933935546875,2.5499548241868615,-9.468907406920193,-0.08901568780289962
1700007024784338400,4.20333837890625,2.5383766145959497,-9.472039275205136,-0.08658682582131587
1700007024794284500,4.213284423828125,2.52739111020118,-9.474979420310259,-0.08636980380346067
1700007024804229400,4.2232294921875,2.5162261575862765,-9.47794469985664,-0.08705411453950218
1700007024814174500,4.233174560546875,2.5042656706795094,-9.481101702582835,-0.08819498253716156
1700007024824119600,4.24311962890625,2.4910630747571587,-9.48456382573545,-0.08979797902069986
1700007024834064400,4.253064453125,2.4755782131165263,-9.488603456515074,-0.09094489316665567
1700007024844010200,4.26301025390625,2.4577114247754213,-9.493245729362965,-0.09119585398673079
1700007024853955600,4.27295556640625,2.4383370083503424,-9.498245729607342,-0.09057333817421458
1700007024863900400,4.282900390625,2.418468232537061,-9.503337499788403,-0.08936323173209093
1700007024873845500,4.292845458984375,2.398670768394321,-9.508366726127266,-0.08786051728525199
1700007024883790600,4.30279052734375,2.379399373952299,-9.513222933986782,-0.08609226550371385
1700007024893735400,4.3127353515625,2.361381778963655,-9.517727259668707,-0.08449675820688717
1700007024903681500,4.322681640625,2.3452274936288595,-9.52173065009117,-0.0833457341413945
1700007024913626400,4.33262646484375,2.331437599337846,-9.525122046095133,-0.08247432160172612
1700007024923571700,4.34257177734375,2.321361757133901,-9.527591066557168,-0.08187514099902472
1700007024933516500,4.3525166015625,2.315582296949625,-9.528996841701865,-0.08169095267169177
1700007024943461400,4.36246142578125,2.31490132894814,-9.529165768527983,-0.08153304042993113
1700007024953407500,4.372407470703125,2.3195237280517813,-9.528043486499786,-0.08129437283584848
1700007024963352300,4.382352294921875,2.329512476494163,-9.525614213526248,-0.08036105577480047
1700007024973297400,4.39229736328125,2.3447829647317526,-9.521887886479496,-0.07791063041538
1700007024983242500,4.402242431640625,2.3642026816032824,-9.517110589075088,-0.07413336319925729
1700007024993187300,4.412187255859375,2.3866262564659118,-9.511554123991727,-0.06896356847907882
1700007025003133400,4.422133544921875,2.4102003165379164,-9.505658636212349,-0.06157519352713134
1700007025013078500,4.43207861328125,2.4332421694293616,-9.499844981497526,-0.0515958476673346
1700007025023023400,4.4420234375,2.455865796908736,-9.494079257577658,-0.039542851038370276
1700007025032968400,4.451968505859375,2.479286712245643,-9.488032963150738,-0.02732914285578299
1700007025042913500,4.46191357421875,2.5042493040665983,-9.481501515555381,-0.016052105885243508
1700007025052858600,4.471858642578125,2.528834587007761,-9.474982927441596,-0.0083042984910222
1700007025062804500,4.481804443359375,2.5503020301893353,-9.46923181656897,-0.004799425325359334
1700007025072749300,4.491749267578125,2.5700556551903486,-9.463891040062904,-0.0014029067633528028
1700007025082694700,4.501694580078125,2.5850860510617495,-9.459792372572421,0.0045549339182107355
1700007025092639500,4.511639404296875,2.5881965842977164,-9.458936632525921,0.012956290727795567
1700007025102584300,4.521584228515625,2.5781360857933757,-9.461665180706976,0.022908807946171145
1700007025112530400,4.531530517578125,2.560525902561843,-9.466411498451233,0.03326416121124057
1700007025122475300,4.541475341796875,2.5396385973557827,-9.471998943194746,0.04291502175205387
1700007025132420600,4.551420654296875,2.5165096507027744,-9.478131746861338,0.05113469186241273
1700007025142365400,4.561365478515625,2.4916581180408595,-9.484657933759689,0.05755737728709354
1700007025152310300,4.571310302734375,2.46438111179769,-9.491755783066154,0.06134081851567607
1700007025162256400,4.58125634765625,2.4342165674194693,-9.499531093242764,0.06241055293930694
1700007025172201500,4.591201416015625,2.4016538758583366,-9.507814937463403,0.06245201289427932
1700007025182146600,4.601146484375,2.3668917745567857,-9.516521975532173,0.06324964781168382
1700007025192091400,4.61109130859375,2.329410769685358,-9.525748069038986,0.0658959382364992
1700007025202036500,4.621036376953125,2.287398843386024,-9.53588893930316,0.07072924927761778
1700007025211981600,4.630981689453125,2.2395397984936833,-9.547188331952691,0.07751756684402934
1700007025221927400,4.640927490234375,2.1867852366447447,-9.559337034907937,0.0859599626272451
1700007025231872500,4.65087255859375,2.1312252619862555,-9.57178793568015,0.09552426597932354
1700007025241817600,4.660817626953125,2.0740520069122312,-9.584220716273784,0.10677332581426016
1700007025251762700,4.6707626953125,2.017258252675086,-9.596190555530786,0.11916237686402163
1700007025261707500,4.68070751953125,1.9632165736250577,-9.607244448986648,0.13054852534839884
1700007025271653600,4.690653564453125,1.910915162371099,-9.61763315653205,0.14109299884424545
1700007025281598500,4.700598388671875,1.8589304158508777,-9.627656537896394,0.15170612626266664
1700007025291543600,4.71054345703125,1.807109481590241,-9.63732628351748,0.16339827195629478
1700007025301488600,4.720488525390625,1.7565649970062076,-9.64644482499659,0.17603863088600336
1700007025311433500,4.73043359375,1.7077292160362003,-9.654964816060662,0.18898732511252164
1700007025321378800,4.74037890625,1.6609711181230842,-9.662844171133637,0.20256268160371108
1700007025331324700,4.75032470703125,1.6171407442249357,-9.669977676275371,0.21634053839705883
1700007025341269500,4.76026953125,1.5767242704235016,-9.676337858957051,0.22978550997423006
1700007025351214600,4.770214599609375,1.5393170614406466,-9.682038700947166,0.24290700348438693
1700007025361159700,4.78015966796875,1.5051001729317008,-9.687086631986498,0.25578771050861104
1700007025371104500,4.7901044921875,1.4740896792486309,-9.691513800778985,0.26838382843779396
1700007025381050600,4.800050537109375,1.445466372963041,-9.695482119888066,0.2804325598835945
1700007025390995500,4.809995361328125,1.418577635385096,-9.699108493691682,0.29205596032310277
1700007025400940500,4.8199404296875,1.3930147395834327,-9.70245312794447,0.30382105252193287
1700007025410885600,4.8298857421875,1.3689195782467722,-9.705499656033515,0.3157773199113086
1700007025420830500,4.83983056640625,1.3456567760810256,-9.708334002676606,0.3284150119598955
1700007025430776600,4.849776611328125,1.3230777183957396,-9.710950907176732,0.342466589394398
1700007025440721400,4.859721435546875,1.299655780145526,-9.713539170104264,0.35838691984284665
1700007025450666800,4.869666748046875,1.2759088477246463,-9.716070149886608,0.37472258962653576
1700007025460611600,4.879611572265625,1.2526418077751993,-9.71845499919653,0.39103805687241255
1700007025470556400,4.889556396484375,1.2302664559684693,-9.720675013333558,0.406606541675888
1700007025480501800,4.899501708984375,1.2079469260022044,-9.722851188328862,0.42120713129527865
1700007025490447600,4.909447509765625,1.1855464397542177,-9.725008658623695,0.43487179177142676
1700007025500392700,4.919392822265625,1.16348862946406,-9.727122874298692,0.4469709564965218
1700007025510337500,4.929337646484375,1.1424902650989592,-9.729191497266292,0.4559982760282233
1700007025520282600,4.93928271484375,1.1261104273799807,-9.73079834794104,0.4623891095764935
1700007025530227700,4.949227783203125,1.1152009838961063,-9.731837627860903,0.4669771314864978
1700007025540173600,4.959173583984375,1.105395336935669,-9.732837744814157,0.46942470730170605
1700007025550118700,4.96911865234375,1.0955688663829117,-9.733936061444878,0.4696727637786418
1700007025560063500,4.9790634765625,1.087967962925136,-9.734880064296721,0.4677749308006838
1700007025570008600,4.989008544921875,1.083986857399717,-9.735510178893804,0.4638685344792902
1700007025579953700,4.99895361328125,1.0836855363655835,-9.735811792188882,0.4582552246421575
1700007025589899500,5.0088994140625,1.0862047526448964,-9.735868490812182,0.45100839531905945
1700007025599844600,5.0188447265625,1.0915503514565528,-9.735658062931895,0.44257495002727953
1700007025609789700,5.028789794921875,1.0994653623647987,-9.73518284663558,0.4333313939290121
1700007025619734500,5.038734619140625,1.109894474985823,-9.73441478487253,0.4239078416213393
1700007025629679600,5.0486796875,1.1225141564536838,-9.733382519215345,0.41427795308660714
1700007025639624700,5.058624755859375,1.1375908026196062,-9.732028181996942,0.4048798640137538
1700007025649570800,5.06857080078125,1.1549084326453507,-9.730349435129762,0.39606275316663087
1700007025659515600,5.078515625,1.174787875983119,-9.72828198120594,0.3883159749647602
1700007025669460500,5.08846044921875,1.1988919512785972,-9.725637019655109,0.38081922600120305
1700007025679405600,5.098405517578125,1.228087796755135,-9.722309336537123,0.3726718676418066
1700007025689350700,5.1083505859375,1.2626000149488448,-9.718221774962544,0.36384566017277536
1700007025699296800,5.118296875,1.3007868300020693,-9.713541508191824,0.35423714321963484
1700007025709241600,5.12824169921875,1.341473499047011,-9.70839888460636,0.3432881349103525
1700007025719186400,5.1381865234375,1.3847624595448373,-9.702787474465369,0.32975648969672616
1700007025729131800,5.1481318359375,1.4311189909197388,-9.69661609235406,0.31294107357207684
1700007025739076600,5.15807666015625,1.4811444200657307,-9.689722825708985,0.2930661420126445
1700007025749022500,5.1680224609375,1.5332413947887717,-9.682274263268708,0.2703976524782367
1700007025758967600,5.177967529296875,1.5850494695678352,-9.674604751554131,0.2450435040564276
1700007025768912600,5.18791259765625,1.6369143891006708,-9.666628950369358,0.21724658385869114
1700007025778857700,5.197857666015625,1.6872537065014241,-9.658590605342388,0.1876338464106433
1700007025788802600,5.207802490234375,1.7347658376522361,-9.650701313397288,0.15795582517404108
1700007025798747600,5.21774755859375,1.779409427629411,-9.643008420807123,0.12827094493838959
1700007025808693800,5.22769384765625,1.8216129309780895,-9.635486793130635,0.09729739486537874
1700007025818638600,5.237638671875,1.8615695321828125,-9.62813000062704,0.06374933639555237
1700007025828583400,5.24758349609375,1.900363811609894,-9.620718847587703,0.027381288601551205
1700007025838528500,5.257528564453125,1.9392257494457066,-9.612993806293606,-0.01069831006739987
1700007025848473600,5.2674736328125,1.9789526335477827,-9.604773674958944,-0.049294507355825044
1700007025858419700,5.277419677734375,2.018898128836602,-9.59618354126811,-0.08775969639243558
1700007025868364500,5.287364501953125,2.0585041630379854,-9.58734206316471,-0.12579185060691087
1700007025878309400,5.297309326171875,2.096919380019605,-9.57844856261313,-0.1631550925838761
1700007025888254700,5.307254638671875,2.1337784536004065,-9.569623451122641,-0.19916131219500674
1700007025898199600,5.317199462890625,2.1684078684329986,-9.561068973267078,-0.23313363309204577
1700007025908145700,5.327145751953125,2.200205274710059,-9.553003740233182,-0.263837179717794
1700007025918090500,5.337090576171875,2.228810168556124,-9.545601939544081,-0.29032214053412897
1700007025928035600,5.34703564453125,2.253320778825879,-9.539142972663045,-0.3125694272480905
1700007025937980700,5.356980712890625,2.2734213175684213,-9.53374199040234,-0.33123525701239703
1700007025947925500,5.366925537109375,2.2890105163663623,-9.529441078338026,-0.34722090778201814
1700007025957870600,5.37687060546875,2.299173598462343,-9.526386366942525,-0.36354035708326843
1700007025967816700,5.386816650390625,2.3085554670527575,-9.523494737154245,-0.37950434401035305
1700007025977761500,5.396761474609375,2.321510079563409,-9.519764902976155,-0.3937866249281913
1700007025987706600,5.40670654296875,2.3331759674377737,-9.516351879662274,-0.40711544104609637
1700007025997651500,5.4166513671875,2.3401802932418883,-9.514009115928411,-0.42137919992655515
1700007026007596500,5.426596435546875,2.3453962743245063,-9.512029340288043,-0.4367966588867828
1700007026017542700,5.436542724609375,2.3513068135425446,-9.509829784417152,-0.45264195133764296
1700007026027487500,5.446487548828125,2.356956802128255,-9.5076904343009,-0.46794626877959816
1700007026037432600,5.4564326171875,2.3622195449620484,-9.505682601609825,-0.48199203752782194
1700007026047377700,5.466377685546875,2.36722875142619,-9.503746665111183,-0.4953740816703066
1700007026057322500,5.476322509765625,2.3721700072206557,-9.501842877316474,-0.5081128960058092
1700007026067268600,5.4862685546875,2.377334111985564,-9.4998747921139,-0.5206226142931729
1700007026077213400,5.49621337890625,2.3822733219534156,-9.497977434059978,-0.5325286310663446
1700007026087158800,5.50615869140625,2.3857212704502047,-9.496486903241276,-0.5435634910281747
1700007026097103600,5.516103515625,2.387775280370563,-9.49537864973843,-0.5538048990573734
1700007026107048400,5.52604833984375,2.388252250232547,-9.494712294784188,-0.5631028887566178
1700007026116993800,5.535993896484375,2.3864814411677417,-9.494684822255373,-0.5710010581279173
1700007026126939600,5.545939697265625,2.382916734423488,-9.495177574208379,-0.5776749464012683
1700007026136884700,5.555884765625,2.3775578377388418,-9.496185289946197,-0.5831869878210127
1700007026146829600,5.56582958984375,2.3702292484164236,-9.497738364607095,-0.5876948571668937
1700007026156774400,5.5757744140625,2.3615495367459953,-9.49968716058731,-0.5911233703108504
1700007026166719700,5.5857197265625,2.352043749514967,-9.501935231775045,-0.5928871285803615
1700007026176665600,5.59566552734375,2.3410673052094877,-9.50466787160933,-0.5925233367692678
1700007026186610700,5.605610595703125,2.328586301559955,-9.507844748079776,-0.5907078483125194
1700007026196555500,5.615555419921875,2.315900130727142,-9.511128592056036,-0.5877574740743264
1700007026206500600,5.62550048828125,2.30420121736601,-9.514196747455001,-0.5840376498335972
1700007026216446700,5.63544677734375,2.2942440331056715,-9.516821835261583,-0.5804566130090505
1700007026226391600,5.6453916015625,2.285231582349539,-9.519177458477019,-0.5773728216495364
1700007026236336600,5.655336669921875,2.27709255342707,-9.521318562158942,-0.5742111062156036
1700007026246281700,5.66528173828125,2.2696720480374992,-9.523301260408758,-0.5707197935011238
1700007026256226800,5.675226806640625,2.262791933134943,-9.52516237810552,-0.5669676378933712
1700007026266171600,5.685171630859375,2.2563978481836617,-9.52693464847505,-0.5626679314054548
1700007026276117800,5.69511767578125,2.249881013635546,-9.528738483026624,-0.5581925395570695
1700007026286062600,5.7050625,2.2426123378068206,-9.530724103885888,-0.5535333155743778
1700007026296007700,5.715007568359375,2.2341847012013196,-9.533009584474563,-0.5482470822671428
1700007026305952800,5.724952880859375,2.2245912356868387,-9.535615967580675,-0.5418283377986401
1700007026315897600,5.734897705078125,2.2141445143438876,-9.53846258918345,-0.5344578090306371
1700007026325843700,5.74484375,2.203744116360694,-9.541288752520083,-0.5269846966709941
1700007026335788800,5.754788818359375,2.194815836756676,-9.543718025493622,-0.5202112935459241
1700007026345733600,5.764733642578125,2.1882088397070762,-9.545559853968024,-0.5142276890916749
1700007026355678700,5.7746787109375,2.1839662337012586,-9.546827097424865,-0.5086880655452609
1700007026365623800,5.784623779296875,2.18205221677348,-9.547565348571538,-0.5030173629650846
1700007026375568600,5.794568603515625,2.181538568162918,-9.548060438612103,-0.49581002540215846
1700007026385514800,5.8045146484375,2.180561832085252,-9.548764202967286,-0.4865049483750015
1700007026395459600,5.81445947265625,2.1779459504984318,-9.549946106228232,-0.474866898355633
1700007026405405000,5.824405029296875,2.173397201152891,-9.55157283064723,-0.4628307523967698
1700007026415349800,5.834349853515625,2.168079513261467,-9.553317628487944,-0.4516054113641381
1700007026425294600,5.844294677734375,2.167806103147566,-9.553918516990542,-0.44005701238960027
1700007026435240700,5.85424072265625,2.171378116415441,-9.553651390486955,-0.42809798678755756
1700007026445185500,5.864185546875,2.1723604054510592,-9.553946574041246,-0.41636929934266953
1700007026455131000,5.874130859375,2.17079271774292,-9.554797053390741,-0.40482740317415444
1700007026465075700,5.88407568359375,2.1689196173474192,-9.555747485983371,-0.39226018254589284
1700007026475020500,5.8940205078125,2.167018167640269,-9.556751110067964,-0.37808855892829596
1700007026484966700,5.903966552734375,2.1648310328595337,-9.557878068271279,-0.3617836496090516
1700007026494911700,5.913911865234375,2.162224211362004,-9.559151156947015,-0.3432228876544162
1700007026504856800,5.92385693359375,2.1589824529618022,-9.56057855940163,-0.3233506777750328
1700007026514801700,5.9338017578125,2.1560973990447816,-9.561878536084294,-0.30347013845872134
1700007026524746800,5.943746826171875,2.15418440503031,-9.562897357738018,-0.28435939620481804
1700007026534691800,5.95369189453125,2.1530741057008504,-9.563644961234926,-0.26706511052204296
1700007026544637700,5.9636376953125,2.153438847360015,-9.563981061321497,-0.2517095195505768
1700007026554582800,5.973582763671875,2.15575633052215,-9.563827916586398,-0.237261033486668
1700007026564527900,5.98352783203125,2.1592769058637318,-9.563386018037795,-0.22264544722754506
1700007026574472700,5.99347265625,2.1632880412012336,-9.56283656746149,-0.20679863867303355
1700007026584417800,6.003417724609375,2.166647873023152,-9.562449613970518,-0.18855841390965505
1700007026594363600,6.01336376953125,2.168227689560503,-9.56248176267445,-0.1676479104910977
1700007026604308500,6.02330859375,2.1686865392439065,-9.562751227265595,-0.14477592514068818
1700007026614253800,6.03325390625,2.1691990188106893,-9.562968669408558,-0.12083277602796443
1700007026624198700,6.04319873046875,2.170325977014005,-9.562989712196588,-0.09641886759833432
1700007026634143700,6.053143798828125,2.171629753088951,-9.56291080174148,-0.07185733085894025
1700007026644089600,6.063089599609375,2.1738957983247933,-9.562547229126094,-0.047755516019207425
1700007026654034700,6.07303466796875,2.1789726631976665,-9.561477554067968,-0.024947017509199212
1700007026663979800,6.082979736328125,2.1881413274288177,-9.559414191797375,-0.004482472611842968
1700007026673924600,6.092924560546875,2.201055315668136,-9.556440728944539,0.01328478061335627
1700007026683870000,6.102869873046875,2.21666219625324,-9.552798573049902,0.02884832438023295
1700007026693815800,6.11281591796875,2.2343211870625614,-9.5486274248451,0.043428994589601644
1700007026703760600,6.1227607421875,2.2533687096208332,-9.544079260021448,0.057305471185524946
1700007026713705700,6.132705810546875,2.2733818623408673,-9.539239418774843,0.07100847721095196
1700007026723650800,6.14265087890625,2.2936944363988934,-9.534259292274713,0.08508816649508662
1700007026733595600,6.152595703125,2.3133177130185065,-9.529368597623705,0.10022461655684746
1700007026743540700,6.162540771484375,2.331666001266241,-9.524711711728573,0.11652094071083702
1700007026753486600,6.172486572265625,2.348200225829333,-9.520416644883156,0.13410961536346003
1700007026763431700,6.182431640625,2.3626545753784476,-9.516566983717679,0.15221525396173818
1700007026773376800,6.192376708984375,2.3747810665018854,-9.5132445612967,0.17028996769879012
1700007026783321600,6.202321533203125,2.3843626954481003,-9.510525949987768,0.1873859725967981
1700007026793266700,6.2122666015625,2.392919803652167,-9.508054591438174,0.20311169378859922
1700007026803212500,6.222212646484375,2.4012296590968965,-9.505634670814871,0.21770247440002857
1700007026813158000,6.232157958984375,2.40999354191944,-9.503090831550955,0.2315198046872392
1700007026823102700,6.242102783203125,2.420037673810869,-9.500212061244248,0.2445350065450184
1700007026833047600,6.252047607421875,2.4305599446080626,-9.497197681859134,0.25693339167870577
1700007026842993000,6.261992919921875,2.441869127999246,-9.493974628159403,0.26850566471917553
1700007026852938800,6.271938720703125,2.454228551095724,-9.490469250386953,0.27950519763929765
1700007026862883800,6.2818837890625,2.46577139711231,-9.487256718081236,0.28693426992781457
1700007026872828700,6.29182861328125,2.476470485781133,-9.484306051582097,0.29224417637158184
1700007026882773800,6.301773681640625,2.4915023429572583,-9.480176988953351,0.29840850768759847
1700007026892718800,6.31171875,2.5071768819510933,-9.475831068703531,0.3050697191424668
1700007026902663700,6.32166357421875,2.517932084721327,-9.472816104796529,0.31008911820705976
1700007026912609800,6.33160986328125,2.525529992504418,-9.470692536771297,0.3131034975921735
1700007026922554600,6.3415546875,2.5329364693686363,-9.46867126007676,0.31449378290679303
1700007026932499700,6.351499755859375,2.5418486746206876,-9.466282903635502,0.3144883030140772
1700007026942444800,6.36144482421875,2.552156133623421,-9.463540911450982,0.31348646902777255
1700007026952389600,6.3713896484375,2.561993929287791,-9.460973691311478,0.31071243773717433
1700007026962335700,6.381335693359375,2.5720216945663092,-9.458390104559063,0.30652295015808195
1700007026972280800,6.39128076171875,2.5838626467466352,-9.455307920634747,0.30196616363655776
1700007026982225700,6.4012255859375,2.596429867374897,-9.452003033870458,0.2975729336462915
1700007026992170800,6.411170654296875,2.607468271000683,-9.449090945816039,0.2935627298905514
1700007027002115800,6.42111572265625,2.617330324323475,-9.446476379403471,0.28998558378983286
1700007027012062000,6.43106201171875,2.6264626020669937,-9.44403600051403,0.28677542610429224
1700007027022006800,6.4410068359375,2.635966635732353,-9.441491576728223,0.2833596263114363
1700007027031951600,6.45095166015625,2.647400468416512,-9.43842225228548,0.27903235596315934
1700007027041896700,6.460896728515625,2.6603353533133864,-9.434960713654757,0.27308102807700635
1700007027051841800,6.470841796875,2.6733859735444185,-9.431473456060885,0.2659584279217757
1700007027061787600,6.48078759765625,2.6857436430752277,-9.428177921646833,0.2581248299529776
1700007027071732700,6.490732666015625,2.6975667673379182,-9.4250115665704,0.25034530025897545
1700007027081677600,6.500677490234375,2.7085940650478,-9.42204570250213,0.2428048217515461
1700007027091623000,6.510622802734375,2.718546134741604,-9.419365669637918,0.23551252758521585
1700007027101567700,6.520567626953125,2.7277345265865325,-9.416889050391315,0.22817812957651912
1700007027111512600,6.5305126953125,2.7369024601653216,-9.414410093057155,0.22050655376901848
1700007027121458700,6.540458740234375,2.746299818585813,-9.411853978833555,0.21273027547802775
1700007027131403800,6.55040380859375,2.755219330361485,-9.409415353509782,0.20511326113566755
1700007027141348900,6.560348876953125,2.762871890941262,-9.407321011579036,0.19807295070271938
1700007027151293700,6.570293701171875,2.768929583545029,-9.4056738288939,0.19163195786979048
1700007027161238800,6.58023876953125,2.7748776782944797,-9.404026061686872,0.18644498368594795
1700007027171185000,6.590184814453125,2.7809423851609227,-9.402319257768989,0.18195092366971075
1700007027181129700,6.600129638671875,2.7863734702989458,-9.400777289023996,0.1784815487924032
1700007027191074600,6.610074462890625,2.791095238123834,-9.39942645893693,0.17585331918066366
1700007027201019600,6.62001953125,2.795349096176028,-9.398201885578036,0.17371961335390806
1700007027210964700,6.62996484375,2.80024066760987,-9.396790849736332,0.17136961616165935
1700007027220910800,6.639910888671875,2.805798593997955,-9.395182245495915,0.1686620011707768
1700007027230855700,6.649855712890625,2.811896910873055,-9.393426926261187,0.16488244609944522
1700007027240801000,6.659801025390625,2.8179578183472156,-9.391693234336376,0.16005080642560496
1700007027250746000,6.66974609375,2.8228663409158585,-9.390313178154825,0.15443987120864913
1700007027260691200,6.679691162109375,2.8268589176833627,-9.389209016305207,0.14840450916769912
1700007027270637000,6.689636962890625,2.8300539143323897,-9.388338078689575,0.1425310505570378
1700007027280582100,6.69958203125,2.833133760169148,-9.3874864302963,0.1373373361051548
1700007027290527200,6.70952734375,2.8358731220051645,-9.386719537577033,0.1331299201437272
1700007027300472000,6.71947216796875,2.8377532366633416,-9.386180608394742,0.130980934549449
1700007027310417200,6.729417236328125,2.8382138399124144,-9.3860525981009,0.1301455614375416
1700007027320362000,6.739362060546875,2.835482369121909,-9.386927042847871,0.12671351376278325
1700007027330308000,6.74930810546875,2.8318726541921495,-9.388062768879532,0.1230814956696704
1700007027340253200,6.759253173828125,2.831766855730116,-9.388106608021259,0.12221180016305297
1700007027350198000,6.769197998046875,2.831342200577259,-9.38821591361463,0.1236371933236718
1700007027360143000,6.77914306640625,2.8279449593544004,-9.389213692480325,0.12544904678491875
1700007027370088200,6.789088134765625,2.8237504302740097,-9.390442942014335,0.12814690756676717
1700007027380034300,6.799034423828125,2.8203566961824893,-9.39144072088003,0.1296468729340937
1700007027389979100,6.808979248046875,2.8189608579099175,-9.391838195765018,0.13112762214429677
1700007027399924000,6.818924072265625,2.8189015289381145,-9.391813061323761,0.13437235795287414
1700007027409869300,6.828869384765625,2.8131252836242315,-9.393499406975508,0.1373451632185839
1700007027419814100,6.838814208984375,2.810669999426603,-9.394206093940138,0.1392279812905006
1700007027429760000,6.848760009765625,2.8163088820964095,-9.392508642372489,0.13983745495835317
1700007027439705000,6.858705078125,2.8213050829485056,-9.391019280597567,0.13926892522224224
1700007027449650200,6.868650146484375,2.822685139130056,-9.390626481887697,0.13769569368930532
1700007027459595300,6.87859521484375,2.8237299720078703,-9.390343573293089,0.1356269702570047
1700007027469540000,6.8885400390625,2.824092667840421,-9.390257648575306,0.13393523604408836
1700007027479485000,6.89848486328125,2.8235791653603313,-9.390425990879535,0.13292543794703668
1700007027489431000,6.90843115234375,2.8227286860108376,-9.39067908885777,0.13317938530864193
1700007027499376000,6.918376220703125,2.822134519509971,-9.390861459687352,0.1329897627543658
1700007027509321200,6.9283212890625,2.82089620988667,-9.391253673875331,0.13145278071174396
1700007027519266000,6.93826611328125,2.820161465871334,-9.391515539681912,0.12859803973459638
1700007027529211100,6.948211181640625,2.8204639559492466,-9.391471700540185,0.12498103654752485
1700007027539157200,6.9581572265625,2.8214830698639153,-9.391214510908723,0.12126322160079143
1700007027549102000,6.96810205078125,2.8228353612557053,-9.390849769249558,0.11797149571217595
1700007027559047000,6.978046875,2.8254364836648107,-9.39010216575265,0.11526694946121424
1700007027568992300,6.9879921875,2.8293136173591016,-9.388968777808547,0.11253642851877957
1700007027578937000,6.99793701171875,2.8342580880239603,-9.387503965952991,0.11004090364230797
1700007027588883200,7.00788330078125,2.8394810833692548,-9.38595965912044,0.1072859880441334
1700007027598828000,7.017828125,2.8438635362371802,-9.384663774091004,0.10446144127584993
1700007027608773000,7.027773193359375,2.847106755942106,-9.383714510542154,0.10151623640311881
1700007027618718200,7.03771826171875,2.851636800587177,-9.382364264976978,0.09914213681607506
1700007027628663000,7.0476630859375,2.855596644128859,-9.381180608150363,0.09699801919315941
1700007027638608000,7.05760791015625,2.8585362047120926,-9.380302656272054,0.09533303598985075
1700007027648554000,7.067553955078125,2.8608599714845417,-9.379597138351201,0.09503535908437333
1700007027658499000,7.0774990234375,2.8620819144949317,-9.379216030079126,0.0958278520357795
1700007027668444200,7.087444091796875,2.862909012968838,-9.37894715000987,0.09742018099483102
1700007027678389000,7.097388916015625,2.863048421439528,-9.378886944255232,0.09907406741539015
1700007027688334000,7.107333984375,2.8627698967590924,-9.378962932100892,0.10009475223263725
1700007027698280200,7.1172802734375,2.8616189731582997,-9.379310722625256,0.10032629596618935
1700007027708225000,7.12722509765625,2.8604110586732623,-9.379680140459538,0.1002391200062353
1700007027718170000,7.137170166015625,2.85978152859807,-9.379877124336362,0.09989007823970168
1700007027728115200,7.147115234375,2.8593682716220616,-9.380002796542644,0.0997794574720785
1700007027738060000,7.15706005859375,2.8595673013255,-9.379941421744228,0.09990705677396618
1700007027748006100,7.167006103515625,2.8601874790504573,-9.37974794499874,0.1001579536619596
1700007027757951000,7.176950927734375,2.860585246196389,-9.379621688270568,0.10074654893856495
1700007027767896000,7.18689599609375,2.8604166116312144,-9.379669619065522,0.10111508085685782
1700007027777841200,7.196841064453125,2.8586300204753874,-9.38023309816718,0.09930592167619615
1700007027787786000,7.206785888671875,2.857441102951765,-9.380618882614373,0.0969383705609478
1700007027797732000,7.216732177734375,2.8598157231286168,-9.379902843299508,0.09626760429306887
1700007027807677000,7.226677001953125,2.8626433477699753,-9.379034828293323,0.0966182078290265
1700007027817622300,7.236622314453125,2.864061397874355,-9.378608127313852,0.09609669557241722
1700007027827567000,7.246567138671875,2.8646999880388377,-9.378427510049939,0.09476538303657435
1700007027837512000,7.256511962890625,2.8660321134254336,-9.378047570821643,0.09193705514231697
1700007027847458000,7.2664580078125,2.868886918334663,-9.377211704519391,0.08813445712211541
1700007027857403100,7.276403076171875,2.8716791794016956,-9.376388697698712,0.08492716724709608
1700007027867348200,7.28634814453125,2.870029366368055,-9.376921781662105,0.08149311027834191
1700007027877293000,7.29629296875,2.8689193592995403,-9.377281262624264,0.07902535932478494
1700007027887238100,7.306238037109375,2.8713129764378067,-9.376564054265618,0.07729525672970339
1700007027897183200,7.316183349609375,2.8723583938375112,-9.37626185644865,0.07519252142994665
1700007027907129000,7.326129150390625,2.8711688917919993,-9.376643549242615,0.07298354927673935
1700007027917074200,7.33607421875,2.870745697943866,-9.37678441901803,0.07131654307970312
1700007027927019000,7.34601904296875,2.870784860910475,-9.376786757105588,0.06989023203705437
1700007027936964000,7.355964111328125,2.8716330021724104,-9.376534828171133,0.0685907896439312
1700007027946909200,7.3659091796875,2.87383372708708,-9.37587198034823,0.06710284350796136
1700007027956855000,7.37585498046875,2.8756606502532955,-9.375326036903262,0.0652876199126942
1700007027966800100,7.385800048828125,2.874414449584484,-9.375718835613132,0.06328781069787219
1700007027976745200,7.3957451171875,2.8671508883222936,-9.37795755445063,0.061173882717243395
1700007027986690000,7.40568994140625,2.8521158162757754,-9.382557741722463,0.05883323787522968
1700007027996635100,7.41563525390625,2.82918619158715,-9.389508291512728,0.05655410026237368
1700007028006581000,7.4255810546875,2.7997046610370275,-9.398356199356913,0.054397671147156504
1700007028016526000,7.435526123046875,2.7659277713805435,-9.4083602914989,0.05250029939350206
1700007028026471200,7.44547119140625,2.7296625720396634,-9.418956504315137,0.05051239524560514
1700007028036416000,7.455416015625,2.6929849925056097,-9.42952349103689,0.04777145337385591
1700007028046361000,7.465361083984375,2.6577105577677487,-9.439545703357458,0.044060666389530524
1700007028056307200,7.47530712890625,2.6254484565883875,-9.448589426034689,0.039508240949292665
1700007028066252000,7.485251953125,2.5972654414162037,-9.456397469437121,0.03362077892945381
1700007028076197000,7.495197021484375,2.5727225363120434,-9.463127654474974,0.02596562453379156
1700007028086142000,7.505141845703125,2.55129074896574,-9.46895007701814,0.01648869350448949
1700007028096087000,7.515087158203125,2.5309558169454336,-9.47441827929616,0.00557102561496431
1700007028106033200,7.525033203125,2.5147563772946593,-9.478730881798267,-0.0052824076571327165
1700007028115978000,7.53497802734375,2.5023697739303112,-9.481997774639725,-0.015143165213626342
1700007028125923000,7.544923095703125,2.492845574259758,-9.4844872533679,-0.024293428421695715
1700007028135868200,7.5548681640625,2.4853864904254674,-9.486419682735205,-0.033047712298831904
1700007028145813000,7.56481298828125,2.478800097772479,-9.488110704562068,-0.04129316530441865
1700007028155758000,7.574758056640625,2.4718966019943354,-9.489872453537583,-0.04967566586025059
1700007028165704000,7.584703857421875,2.4640412123188375,-9.491862750571965,-0.05851060919158626
1700007028175649300,7.594649169921875,2.4556498160704967,-9.49397988885641,-0.06740043821504804
1700007028185594000,7.604593994140625,2.448271103996038,-9.495821132808922,-0.075645270166127
1700007028195539000,7.6145390625,2.4431011540122327,-9.497094806006551,-0.08269194640778005
1700007028205484000,7.624484130859375,2.4408447533875703,-9.497631397101282,-0.08765804438255727
1700007028215430100,7.63443017578125,2.4403940870106218,-9.497716152775286,-0.09084124099593609
1700007028225375200,7.644375244140625,2.441242666663974,-9.497476498800516,-0.09315124410451389
1700007028235320000,7.654320068359375,2.4424238392725584,-9.497141567757724,-0.0964090494572185
1700007028245264600,7.6642646484375,2.4444158898726105,-9.49659270170331,-0.09969352362114005
1700007028255209500,7.67420947265625,2.4495059064880014,-9.49526934414506,-0.10088002085881308
1700007028265155600,7.684155517578125,2.4543583149552344,-9.49401496016979,-0.10086348984912037
1700007028275100400,7.694100341796875,2.4560426147803662,-9.493573061621188,-0.10171610635677351
1700007028285045500,7.70404541015625,2.454751113665104,-9.493878182047604,-0.10405436744545586
1700007028294990600,7.713990478515625,2.4531834259569645,-9.494251691535114,-0.10700137154962867
1700007028304935400,7.723935302734375,2.4536121727630493,-9.494106145584583,-0.11015960725168697
1700007028314881500,7.733881591796875,2.456004328596592,-9.493460833418368,-0.11252568792905658
1700007028324826400,7.743826416015625,2.4590599167749283,-9.49263899564147,-0.1148036062657833
1700007028334771500,7.753771484375,2.4650933517202733,-9.491044419926405,-0.11734350914009846
1700007028344716500,7.763716552734375,2.476418463332951,-9.488072710639237,-0.119253653610358
1700007028354661400,7.773661376953125,2.4899445921212435,-9.484510049721598,-0.12095377205912955
1700007028364607500,7.783607421875,2.503003687919676,-9.48105494083166,-0.12218749683885835
1700007028374552600,7.793552490234375,2.517780693551898,-9.477127538254857,-0.12341943152029998
1700007028384497400,7.803497314453125,2.534364456345141,-9.4726816647619,-0.12523211609860882
1700007028394442500,7.8134423828125,2.551701375593245,-9.467997890859841,-0.12749442587425
1700007028404387600,7.8233876953125,2.5711335135549307,-9.462700953495501,-0.13023027144577354
1700007028414332400,7.83333251953125,2.5923010970070957,-9.45688496069312,-0.13319333163560368
1700007028424278500,7.843278564453125,2.614343125206232,-9.450781383121013,-0.13544858148279598
1700007028434223400,7.853223388671875,2.636582721804082,-9.444574929696321,-0.1372081567675341
1700007028444168400,7.86316845703125,2.659608792604506,-9.438106610465049,-0.138003681926243
1700007028454113500,7.873113525390625,2.683523628938198,-9.431351875507831,-0.13678791292831302
1700007028464058400,7.883058349609375,2.7081992205113172,-9.424331183090805,-0.1341709901618771
1700007028474004500,7.89300439453125,2.734707288208604,-9.416723630696534,-0.13069461928820236
1700007028483949300,7.90294921875,2.7633748720273372,-9.408401208031178,-0.12703295497549696
1700007028493894700,7.912894775390625,2.7931004404664037,-9.399673127174378,-0.12294066242687403
1700007028503839500,7.922839599609375,2.8228032125517726,-9.390870812037587,-0.11713098063427023
1700007028513784300,7.932784423828125,2.84947786898762,-9.382905532246827,-0.10930087153050116
1700007028523730400,7.94273046875,2.8726225977316497,-9.375946799150109,-0.10039599106837994
1700007028533675500,7.952675537109375,2.8929809106275437,-9.369779508692025,-0.0911585633167997
1700007028543620600,7.96262060546875,2.910852375143766,-9.364329426592588,-0.08155990103739313
1700007028553565400,7.9725654296875,2.9262706012889743,-9.359602398070692,-0.07202866883785464
1700007028563510500,7.982510498046875,2.939626341946423,-9.355479765182732,-0.06308325543594547
1700007028573456600,7.99245654296875,2.951509964224696,-9.351790263015031,-0.05459142645385582
1700007028583401500,8.0024013671875,2.9616467428356406,-9.34862273889482,-0.04738191063357517
1700007028593346300,8.01234619140625,2.971101968923211,-9.34565629030466,-0.04066002763318829
1700007028603291400,8.02229150390625,2.979773935678601,-9.342920727860927,-0.03428746267725946
1700007028613236500,8.032236572265624,2.9877777939140793,-9.340382149294019,-0.028522371228341944
1700007028623182600,8.0421826171875,2.995684329254925,-9.337864613515139,-0.023289655923342797
1700007028633127400,8.05212744140625,3.0039196581587193,-9.335229004314542,-0.018763273673236835
1700007028643072300,8.062072265625,3.0134517488747834,-9.332163187003134,-0.014742155797837766
1700007028653017600,8.072017578125,3.0228958690464496,-9.32911198273897,-0.011736783986375666
1700007028662962400,8.08196240234375,3.032315147037804,-9.326059024909139,-0.009602079220843733
1700007028672908500,8.091908447265626,3.040810003660619,-9.32329423637092,-0.008608243594615487
1700007028682853400,8.101853271484375,3.0469916149049996,-9.321273544198274,-0.008120335638441611
1700007028692798500,8.111798583984376,3.050510436680913,-9.320123205119371,-0.008669048712518997
1700007028702743600,8.12174365234375,3.0521020897865294,-9.31960181159377,-0.010424949044204549
1700007028712688400,8.1316884765625,3.054290247480571,-9.318882849669455,-0.011690726629743584
1700007028722633500,8.141633544921875,3.0575550944954153,-9.31781083652377,-0.011616291420353808
1700007028732579600,8.15157958984375,3.058880205619335,-9.317376536759733,-0.01198302182391635
1700007028742524400,8.1615244140625,3.0580630440175534,-9.317642494219541,-0.013809819409257034
1700007028752469500,8.171469482421875,3.055586717031896,-9.318449134427308,-0.01671634765585768
1700007028762414300,8.181414306640624,3.0513012947976588,-9.319846141743659,-0.020549915061413775
1700007028772359400,8.191359375,3.0456326015114783,-9.32168972378373,-0.024631620000652037
1700007028782305500,8.201305419921875,3.038286330401897,-9.324074573093652,-0.028598270025744568
1700007028792250400,8.21125048828125,3.0292794326037167,-9.32698958375752,-0.03304700447935611
1700007028802195500,8.221195556640625,3.022813159199059,-9.329065805509686,-0.03874716148287989
1700007028812140500,8.231140625,3.0176360488221046,-9.330708312019706,-0.04656975856705103
1700007028822085400,8.24108544921875,3.0089155667498706,-9.333469008904695,-0.056469732747436496
1700007028832031500,8.251031494140625,2.9989266721770167,-9.336613152149319,-0.06708290583163033
1700007028841976300,8.260976318359376,2.9889810322239994,-9.33972690025568,-0.07693185764425434
1700007028851921700,8.270921630859375,2.978783755597472,-9.342904361248015,-0.0857023528706748
1700007028861866500,8.280866455078124,2.9686461002036926,-9.346063702061771,-0.09269916208861395
1700007028871811300,8.290811279296875,2.958908257782459,-9.349101462322473,-0.09768262219014577
1700007028881757400,8.30075732421875,2.9500334619313477,-9.35186800442636,-0.101145293332031
1700007028891702500,8.31070263671875,2.9415988110631703,-9.354495430320501,-0.10383361910055391
1700007028901647600,8.320647705078125,2.934308654054999,-9.356759868121147,-0.10607484042239375
1700007028911592400,8.330592529296876,2.928208291353285,-9.358653134521841,-0.10769014839823357
1700007028921537300,8.340537353515625,2.9224405216068026,-9.360444694113731,-0.10874125575320795
1700007028931483400,8.3504833984375,2.9173662870824337,-9.362026994869112,-0.10885760300871916
1700007028941428500,8.360428466796876,2.9136650944769382,-9.363182010123133,-0.1084698092675302
1700007028951373600,8.37037353515625,2.910757390336692,-9.364092695227265,-0.10786617168541997
1700007028961318400,8.380318359375,2.9074864058420062,-9.3651278834939,-0.10627912168968469
1700007028971263500,8.390263427734375,2.903383062176406,-9.366435458961128,-0.10320475574564188
1700007028981209600,8.400209716796875,2.8984298236832022,-9.368012499019503,-0.0991675178525038
1700007028991154400,8.410154541015626,2.8946117266997695,-9.36925051638186,-0.0937548999529332
1700007029001099500,8.420099609375,2.891529250514507,-9.370264661860466,-0.08728682731683365
1700007029011044600,8.430044677734376,2.888685259260237,-9.371201650449633,-0.08037586061828769
1700007029020989400,8.439989501953125,2.8865473704487083,-9.371921196895837,-0.07296181236896664
1700007029030934500,8.4499345703125,2.8850825585931537,-9.372433822593093,-0.06468828404636588
1700007029040880400,8.45988037109375,2.8842528297707437,-9.372747126325965,-0.055486283801193345
1700007029050825500,8.469825439453125,2.8836133628234264,-9.37299788621664,-0.04563250968297943
1700007029060770600,8.4797705078125,2.8837194535464046,-9.373013668307662,-0.034668454501614904
1700007029070715400,8.48971533203125,2.8836224229127168,-9.373080888324976,-0.022559763896348884
1700007029080661500,8.49966162109375,2.883191338019073,-9.373233448538183,-0.009625431555323301
1700007029090606300,8.5096064453125,2.882631366048753,-9.3734082205832,0.0033606406769162273
1700007029100551400,8.519551513671875,2.8824875736638904,-9.373441538330912,0.01498382020824938
1700007029110496500,8.52949658203125,2.88306625033468,-9.373243969932197,0.025012330980505794
1700007029120441300,8.53944140625,2.884927368031442,-9.372647173082829,0.032750489767792164
1700007029130386700,8.54938671875,2.8883155491650103,-9.3715774980247,0.0390546610960504
1700007029140332500,8.55933251953125,2.891279367406666,-9.370642263001203,0.043963252163352444
1700007029150277400,8.56927734375,2.8932199800804255,-9.370021500754357,0.048325630357628685
1700007029160222500,8.579222412109376,2.8931597743257877,-9.370025592407584,0.05156577675605658
1700007029170167600,8.58916748046875,2.891493594679236,-9.370531203842162,0.053192382444045505
1700007029180112400,8.5991123046875,2.8923952196940776,-9.37023835837543,0.05546834628570359
1700007029190058500,8.60905859375,2.8931065828338265,-9.370003380575776,0.058225029149278996
1700007029200003300,8.61900341796875,2.8896447519421575,-9.371060780674219,0.05956264812832232
1700007029209948400,8.628948486328126,2.883888672633469,-9.372835389131307,0.059384241087804546
1700007029219893500,8.6388935546875,2.8793571666836737,-9.374232396447658,0.05881753341602161
1700007029229838300,8.64883837890625,2.8763775663509965,-9.375153018423914,0.05801432270777877
1700007029239784700,8.65878466796875,2.8744673488155006,-9.375743970054387,0.056920906014461065
1700007029249729500,8.6687294921875,2.871066015939414,-9.376790848758816,0.055965705915167925
1700007029259675000,8.6786748046875,2.868026502113044,-9.377724330216646,0.055345738252764565
1700007029269619700,8.68861962890625,2.869546551287174,-9.37726723409891,0.05449729559672996
1700007029279564500,8.698564453125,2.8731679566547275,-9.37616657938063,0.05304840282951481
1700007029289510700,8.7085107421875,2.874527846831083,-9.375759167623519,0.05122956707163248
1700007029299455700,8.718455810546875,2.8752719431966542,-9.375539971914886,0.04957831099957693
1700007029309400800,8.72840087890625,2.878421054877341,-9.374578433406352,0.04877060221272986
1700007029319345700,8.738345703125,2.883156266705692,-9.373121220335364,0.04889871297127101
1700007029329290800,8.748290771484376,2.8888597390443085,-9.37135830231607,0.04990083921852056
1700007029339236900,8.75823681640625,2.8956539292290806,-9.369254023513196,0.0512907272409182
1700007029349181700,8.768181640625,2.9028546543881295,-9.367018227285147,0.0527980356644839
1700007029359126800,8.778126708984376,2.9099206472516057,-9.364818671414255,0.054349256295012305
1700007029369071600,8.788071533203125,2.9175802220940588,-9.36242154714465,0.05637924145238939
1700007029379016700,8.7980166015625,2.925129614560306,-9.360048388272523,0.05919194251925219
1700007029388962800,8.807962890625,2.9317174685180185,-9.35796515225768,0.06247836661166511
1700007029398907600,8.81790771484375,2.9377646397277712,-9.356043244284391,0.06607385665324982
1700007029408852700,8.827852783203125,2.9437413760498163,-9.354149977883695,0.06846713129822164
1700007029418797800,8.8377978515625,2.949606176429987,-9.352294120883942,0.06932320470486301
1700007029428742700,8.84774267578125,2.9555948954507705,-9.350403192570806,0.06940153977123555
1700007029438688800,8.857688720703125,2.961017797282338,-9.348686451780795,0.06948846913601738
1700007029448633600,8.867633544921874,2.96606806640923,-9.347086030846834,0.06949026836745906
1700007029458579000,8.877578857421875,2.9712551136583087,-9.345444693380594,0.06852199415746145
1700007029468523800,8.887523681640625,2.975690173496306,-9.344047101542353,0.06683931090068072
1700007029478468600,8.897468505859376,2.979387858970463,-9.342880395850539,0.06491356700249015
1700007029488413700,8.90741357421875,2.9837843403637407,-9.341490402796865,0.06326659437990748
1700007029498359800,8.91735986328125,2.9876188039600846,-9.340274012744427,0.06168458588547073
1700007029508305000,8.927304931640625,2.991743774935603,-9.338964683711529,0.06021004265376832
1700007029518249700,8.937249755859375,2.9972371116548775,-9.337212287086247,0.05829243182968348
1700007029528194600,8.947194580078126,3.00296747200042,-9.33538098000586,0.056726132361032064
1700007029538140000,8.957139892578125,3.0076117906749245,-9.33389103370905,0.05576223749862984
1700007029548085800,8.967085693359374,3.0119448514431713,-9.332494026392698,0.05562524474731181
1700007029558030600,8.977030517578125,3.0169293618574735,-9.330881915020942,0.056346613257844
1700007029567975700,8.9869755859375,3.023283114798367,-9.32881621466279,0.05789614425478503
1700007029577920800,8.996920654296876,3.0306542280882596,-9.326405061867833,0.060974455721583214
1700007029587865900,9.006865966796875,3.038630613794923,-9.323772375276684,0.06627542080706916
1700007029597811700,9.016811767578124,3.0464377804145215,-9.321159562429786,0.07445669970237649
1700007029607756500,9.026756591796875,3.0532655806079507,-9.318827904611826,0.08590245115319266
1700007029617702000,9.036701904296875,3.058184624570608,-9.317083691293,0.09910868207104503
1700007029627646700,9.046646728515626,3.060851797953248,-9.316075975555181,0.1109243993454147
1700007029637591800,9.056591796875,3.064200816120207,-9.314831528452038,0.12237672666748985
1700007029647537700,9.06653759765625,3.0707635356366634,-9.312489933761954,0.1354423800708726
1700007029657482800,9.076482666015625,3.0772876767084,-9.310132556980848,0.14879011095180175
1700007029667427800,9.086427734375,3.081086484469473,-9.308671252256632,0.1610581568372436
1700007029677372700,9.09637255859375,3.083733199585974,-9.307589886760711,0.17247969629541038
1700007029687317500,9.1063173828125,3.0861031435877084,-9.30660146024525,0.183153266930487
1700007029697263600,9.116263671875,3.088415219922364,-9.305641675302386,0.19268701988067477
1700007029707208700,9.126208740234375,3.090603962138295,-9.304722806891798,0.20172913512270896
1700007029717153800,9.13615380859375,3.090428313310444,-9.304600057294964,0.2098862294248305
1700007029727098600,9.1460986328125,3.090356417118013,-9.304456264910101,0.21720323790730908
1700007029737043700,9.156043701171875,3.0926953814595937,-9.303531551280617,0.22337953365575522
1700007029746989800,9.16598974609375,3.0941078786060214,-9.30294819843471,0.22811028850469736
1700007029756934700,9.1759345703125,3.0930764897316694,-9.303203049978613,0.23166003514183683
1700007029766879700,9.185879638671874,3.0928277756676077,-9.303198373803497,0.23514530170802025
1700007029776824800,9.195824951171875,3.093924923254549,-9.302740693163871,0.23877673527924342
1700007029786769700,9.205769775390625,3.0954692300871014,-9.302119930917025,0.2429323936539702
1700007029796715800,9.2157158203125,3.0981805348724123,-9.30110169378519,0.24737914392976088
1700007029806660600,9.22566064453125,3.102508334943652,-9.299529914423823,0.25215054131634534
1700007029816605700,9.235605712890624,3.106997463056445,-9.297903190004826,0.2568564539849758
1700007029826550800,9.24555078125,3.1121251813337203,-9.296055516311526,0.26156596511648966
1700007029836495600,9.25549560546875,3.117326257108152,-9.29420199739933,0.2654592279616743
1700007029846440700,9.265440673828126,3.121594728207588,-9.292685747617483,0.26846003547916186
1700007029856386600,9.275386474609375,3.1250109663918613,-9.291467019477485,0.27086651209900153
1700007029866332000,9.285331787109374,3.128746645788848,-9.290128464350104,0.2735956996008754
1700007029876276700,9.29527685546875,3.133340987841785,-9.288502324452995,0.2762012424567714
1700007029886221600,9.3052216796875,3.138409377147257,-9.286710764861107,0.2788994320321828
1700007029896167000,9.3151669921875,3.1437764571383595,-9.284809315153955,0.2817851983352564
1700007029906112800,9.32511279296875,3.148497932702303,-9.283115370717644,0.28488276249179617
1700007029916057900,9.335057861328124,3.1531156556308266,-9.281471695163846,0.28734478695746507
1700007029926002700,9.345002685546875,3.1558313443303105,-9.280514248308538,0.28838936410695315
1700007029935947800,9.35494775390625,3.15618673363924,-9.280419555762409,0.2875805502084084
1700007029945892900,9.364892822265626,3.156060769172013,-9.280536460140347,0.28514683852177114
1700007029955838700,9.374838623046875,3.1577251952528953,-9.28006650454104,0.2819782001567073
1700007029965783800,9.38478369140625,3.1611709517925974,-9.279003843745588,0.2783438439760357
1700007029975728600,9.394728759765625,3.1646772063478825,-9.277925985381007,0.27436286631477996
1700007029985673700,9.404673828125,3.167103264451027,-9.27720994606614,0.27055085201226176
1700007029995618800,9.414618896484376,3.1684196077466007,-9.276862740063667,0.26710060196053237
1700007030005564700,9.424564697265625,3.169014358769357,-9.276751096382737,0.2638563228096813
1700007030015509500,9.434509521484374,3.169831520371139,-9.276566387465596,0.2605269226586446
1700007030025454800,9.444454833984375,3.1710540479034184,-9.276233209988474,0.2575438517272472
1700007030035399700,9.454399658203124,3.1730177491918203,-9.275610694175958,0.2556506583917886
1700007030045344800,9.4643447265625,3.176383426232636,-9.274460939618944,0.25558774922341104
1700007030055290600,9.47429052734375,3.1810186848178503,-9.272816679543256,0.2576303609669208
1700007030065235700,9.484235595703124,3.185102447000146,-9.271287570279837,0.2621448244503699
1700007030075180800,9.494180908203125,3.1885198542281983,-9.269915697404741,0.26906865063048896
1700007030085125600,9.504125732421874,3.1899425805076955,-9.269214855659007,0.27619103159001096
1700007030095070700,9.51407080078125,3.1891952692717314,-9.269251096016168,0.28355927706938233
1700007030105016800,9.524016845703125,3.18985899387747,-9.268712751355766,0.2935493954849429
1700007030114961700,9.533961669921876,3.194352213643491,-9.266777399379015,0.30555819677915425
1700007030124906800,9.54390673828125,3.1980309021562334,-9.265084623986482,0.3181061647176742
1700007030134851600,9.5538515625,3.200757404510677,-9.263721518939732,0.33018848790582267
1700007030144796700,9.563796630859375,3.2035067032188174,-9.262335617539286,0.3421775798525661
1700007030154742800,9.57374267578125,3.2069200187936424,-9.260748056086896,0.3529901753658429
1700007030164687600,9.5836875,3.2106615434095263,-9.259092105573416,0.3622597792208195
1700007030174632700,9.5936328125,3.2146374613031745,-9.257378287392854,0.37074707359168674
1700007030184577800,9.603577880859374,3.2182696803256867,-9.255790141418576,0.3787497993160039
1700007030194522600,9.613522705078125,3.2221871460303664,-9.254111394551396,0.3864397692967206
1700007030204468700,9.62346875,3.2257968609601257,-9.252528509274125,0.3941818713234737
1700007030214413600,9.63341357421875,3.228424286854267,-9.251278801473974,0.4019085565853864
1700007030224359000,9.64335888671875,3.2306010463714596,-9.250174639624356,0.4097561282806098
1700007030234303700,9.6533037109375,3.2338068566754457,-9.248709827768803,0.41743813415057957
1700007030244249600,9.66324951171875,3.23851810310632,-9.246713685515523,0.42507706806380297
1700007030254194400,9.6731943359375,3.2448937756180762,-9.244065216833352,0.43396107013467694
1700007030264139500,9.683139404296876,3.251906284728646,-9.241106951549648,0.4443386352315545
1700007030274084600,9.693084716796875,3.2596511997669935,-9.237850580102204,0.45515053662508725
1700007030284029400,9.703029541015624,3.2678459043994543,-9.234436972266435,0.4655589352516457
1700007030293975600,9.7129755859375,3.2769130079522726,-9.230735195139049,0.475130992651917
1700007030303920400,9.72292041015625,3.286239054702222,-9.226996593132615,0.48324068588204677
1700007030313865500,9.732865478515626,3.294851984746754,-9.223607535216212,0.4892684582715854
1700007030323810600,9.742810546875,3.3029230629995463,-9.220507815635203,0.49323926159869874
1700007030333755400,9.75275537109375,3.310297975681722,-9.21773601283431,0.495647309121117
1700007030343701500,9.762701416015625,3.316815979273617,-9.215338304042815,0.4966899500418454
1700007030353646600,9.772646484375,3.322691008786857,-9.21322408836782,0.4966142179245129
1700007030363591400,9.78259130859375,3.3273598773807285,-9.211607885342836,0.4953131817959249
1700007030373536500,9.79253662109375,3.330027927546203,-9.210757405993341,0.49321675750594585
1700007030383481600,9.802481689453124,3.3311791434079407,-9.210531780543922,0.4896185868835076
1700007030393427700,9.812427734375,3.331204862371087,-9.210788970175384,0.48458318653218446
1700007030403372500,9.82237255859375,3.3310604854643344,-9.211191705757379,0.4779123304661363
1700007030413317400,9.8323173828125,3.33155323741734,-9.211457078695297,0.469262831270881
1700007030423262700,9.8422626953125,3.3318355614900588,-9.211879103499651,0.4588477471752092
1700007030433207600,9.85220751953125,3.331271790127456,-9.212610340383648,0.4481146101063117
1700007030443153700,9.862153564453125,3.3298812125518915,-9.213571294370293,0.4386012240907177
1700007030453098500,9.872098388671875,3.328690833723545,-9.2143416942209,0.4313687886191532
1700007030463043300,9.882043212890625,3.327341757202148,-9.215084621542692,0.4259289721854031
1700007030472988700,9.89198876953125,3.3255016822934147,-9.215921072366832,0.4221940234407782
1700007030482933500,9.90193359375,3.3241651729926467,-9.21648864312172,0.4203109131079167
1700007030492879600,9.911879638671875,3.324126594547927,-9.216501502603291,0.4203077347701415
1700007030502824400,9.921824462890624,3.325535000041127,-9.215885416531563,0.4226963834723457
1700007030512769500,9.93176953125,3.3278371395036577,-9.214860165137052,0.42686775087285783
1700007030522714600,9.941714599609375,3.329759339737892,-9.213943634814024,0.43164212566781784
1700007030532659500,9.951659423828126,3.330178441932797,-9.213574216979742,0.4362715755667537
1700007030542605300,9.961605224609375,3.3292136885538697,-9.213730284324289,0.44034996745418753
1700007030552550700,9.971550537109374,3.326996889287233,-9.214391378581523,0.4432585849098861
1700007030562495500,9.98149560546875,3.326443639318645,-9.214353384658693,0.44812798104453827
1700007030572440600,9.991440673828125,3.330617417871952,-9.2124203707695,0.45684049900602547
1700007030582385700,10.0013857421875,3.334856370615959,-9.2103517478019,0.46751014238465577
1700007030592331500,10.01133154296875,3.335373087966442,-9.209647983446716,0.47758138147871937
1700007030602276600,10.021276611328124,3.333836672179401,-9.209704097548126,0.4870941829724237
1700007030612221400,10.031221435546875,3.3323078551769254,-9.209819248360395,0.495295901867561
1700007030622166300,10.041166259765625,3.3308401207119225,-9.210073515382408,0.5004928859887644
1700007030632111600,10.051111572265626,3.3291523137554524,-9.21059315534234,0.5020990425437688
1700007030642056400,10.061056396484375,3.327375951732695,-9.21131854700744,0.5005692391606047
1700007030652002600,10.07100244140625,3.326947497187555,-9.211635357871652,0.49758068833649155
1700007030661947400,10.080947509765625,3.328289559446275,-9.211317962485552,0.4944864486481994
1700007030671892500,10.090892578125,3.3296599710166452,-9.210962573176621,0.4918657812884077
1700007030681837600,10.100837646484376,3.3294191479980944,-9.211196966454386,0.48912287578843533
1700007030691783400,10.110783447265625,3.327960765883326,-9.211907745072246,0.48563751789070664
1700007030701728500,10.120728515625,3.3258810369998213,-9.212889157325028,0.4812195187853649
1700007030711673600,10.130673583984375,3.3235812356248498,-9.214002087002992,0.47574448490776117
1700007030721618400,10.140618408203125,3.3206218012973663,-9.215456377464532,0.4682296888308599
1700007030731563500,10.1505634765625,3.3163793414220213,-9.217495189815759,0.45800778921972957
1700007030741509400,10.16050927734375,3.310971637159586,-9.220063578999042,0.4452422695403918
1700007030751454500,10.170454345703124,3.3051138510420914,-9.222854671022295,0.43077593729253855
1700007030761399600,10.180399658203125,3.299619053018093,-9.22551366109848,0.4157034923776984
1700007030771344400,10.190344482421875,3.293393602631986,-9.228416396802663,0.40037170240692793
1700007030781289500,10.20028955078125,3.2856478108108043,-9.231844617685676,0.38467677821218965
1700007030791235300,10.2102353515625,3.2764941980183124,-9.235752731040119,0.3686019147891551
1700007030801180700,10.2201806640625,3.266041485325992,-9.240084038242697,0.35243645047321914
1700007030811125500,10.23012548828125,3.254642723955214,-9.244678380295634,0.3371166432011872
1700007030821070300,10.2400703125,3.2432337334513663,-9.249154648926854,0.32397531247939915
1700007030831015700,10.250015625,3.2315204993039366,-9.25360286050737,0.31381274184007196
1700007030840961500,10.25996142578125,3.2204207208797335,-9.257705619651079,0.30685525085236875
1700007030850906600,10.26990673828125,3.2100822822168467,-9.261436038351059,0.3025547954457812
1700007030860851500,10.2798515625,3.2002395181164145,-9.264921542379259,0.3001061053857207
1700007030870796500,10.289796630859374,3.190917563019693,-9.268161547213792,0.29933194267544894
1700007030880741600,10.29974169921875,3.182175161376595,-9.271159559985994,0.29953309127073735
1700007030890687500,10.3096875,3.1738942397654055,-9.273971694797277,0.3003636786096729
1700007030900632600,10.319632568359374,3.167025815300643,-9.276288739567995,0.30131803845874966
1700007030910577400,10.329577392578125,3.162636055909097,-9.277756474032998,0.30221553528774525
1700007030920522500,10.3395224609375,3.160392953157425,-9.278485957351327,0.3032799679151736
1700007030930467600,10.349467529296875,3.1590333552420136,-9.278899214327335,0.30487300926027816
1700007030940413400,10.359413330078125,3.15832228436321,-9.279068141153454,0.3070230086347088
1700007030950358500,10.369358642578124,3.1593224013164636,-9.278663067483901,0.30899489322956647
1700007030960303600,10.3793037109375,3.1611756279677152,-9.277983268526196,0.310489479168877
1700007030970248400,10.38924853515625,3.1634505871623753,-9.277185980668664,0.31109884323887527
1700007030980193500,10.399193603515625,3.1652091212674973,-9.2765944445163,0.3108926531422883
1700007030990139400,10.409139404296875,3.166551183526218,-9.276156637620925,0.3102911435851827
1700007031000084500,10.41908447265625,3.168544403170049,-9.275525353980063,0.30875768694020805
1700007031010029600,10.429029541015625,3.1698250906303524,-9.275255304867029,0.3036604733990505
1700007031019974400,10.438974365234374,3.170364604334533,-9.275302651140093,0.29651098523689434
1700007031029919700,10.448919677734375,3.172817842705548,-9.274662015148996,0.290268437585514
1700007031039865600,10.458865478515625,3.1747499798119065,-9.274180369111894,0.28450236660577355
1700007031049810400,10.468810546875,3.1728318712309003,-9.275028510373831,0.2781507325567305
1700007031059755500,10.478755615234375,3.16842136131227,-9.27672771550715,0.27168033096622674
1700007031069700400,10.488700439453124,3.164080994020402,-9.278392433848976,0.26529490424543617
1700007031079645400,10.4986455078125,3.160181356233358,-9.279893486061692,0.2592272747695446
1700007031089591600,10.508591552734375,3.1557790296211836,-9.281511442652343,0.2548619374332018
1700007031099536400,10.518536376953126,3.148498809485137,-9.28405586643815,0.252223204693757
1700007031109481500,10.5284814453125,3.1408515096023675,-9.286679200679064,0.251025099216681
1700007031119426600,10.538426513671874,3.1360049463540314,-9.288335735714435,0.2502774591871537
1700007031129371400,10.548371337890625,3.1316502582758665,-9.289851985496282,0.24860585444681346
1700007031139317500,10.5583173828125,3.1255957805424925,-9.291953341689705,0.2462761145913042
1700007031149262300,10.568262451171876,3.1198145667925474,-9.293961758902668,0.24384591003600506
1700007031159207700,10.578207763671875,3.115661831027269,-9.295397929185627,0.24204751884452996
1700007031169152500,10.588152587890624,3.1122222119674086,-9.296579247924685,0.24100807452788575
1700007031179097300,10.598097412109375,3.1089526887774466,-9.297693931168316,0.24017936861878258
1700007031189043500,10.60804345703125,3.1055925646945832,-9.298846023812889,0.23909246843121945
1700007031198988500,10.617988525390626,3.101180301210284,-9.300347076025604,0.23796233189012853
1700007031208933600,10.62793359375,3.096200466971099,-9.302040435940027,0.2366134928307496
1700007031218878500,10.63787841796875,3.091234076735377,-9.303725028026104,0.23534531779214737
1700007031228824600,10.647824462890625,3.0861592576891184,-9.305444106903671,0.23388976695528252
1700007031238769400,10.657769287109375,3.0806051306933164,-9.307343803045153,0.23152983289090914
1700007031248714800,10.66771484375,3.0756013310566543,-9.309081002101301,0.22826220939708872
1700007031258659600,10.67765966796875,3.071803400078416,-9.310468657067418,0.22261717098113148
1700007031268604400,10.6876044921875,3.069751143723726,-9.31135888390541,0.2135117812445387
1700007031278550500,10.697550537109375,3.069124536257982,-9.311846375161409,0.2008953694459982
1700007031288495600,10.70749560546875,3.069106123818457,-9.312163770547508,0.18588260056283323
1700007031298440700,10.717440673828126,3.066649670577049,-9.313265594309568,0.170663184925355
1700007031308385500,10.727385498046875,3.0605981154531237,-9.315479763227701,0.1579927413846366
1700007031318330600,10.73733056640625,3.0513363661110398,-9.318657224220036,0.1494915554857347
1700007031328276700,10.74727685546875,3.039842327672243,-9.322482919988035,0.14501864785538054
1700007031338221600,10.7572216796875,3.0278403397113083,-9.326433118918537,0.14209898841585963
1700007031348166700,10.767166748046876,3.016941929078102,-9.33001214644909,0.13902285977299325
1700007031358111700,10.77711181640625,3.008831103336811,-9.332700362619757,0.13432408923120237
1700007031368056600,10.787056640625,3.0035949562489983,-9.334482569861411,0.12736010457063093
1700007031378002700,10.797002685546875,3.001320581576228,-9.335335387298464,0.11812717946423217
1700007031387947500,10.806947509765624,3.0019752460926767,-9.335257645887136,0.10721686833067796
1700007031397892600,10.816892578125,3.0052178812757133,-9.33433527034521,0.09608048422313295
1700007031407837700,10.826837646484375,3.0108512109875676,-9.332623205730318,0.08559055392611771
1700007031417782500,10.836782470703126,3.018704262575507,-9.330164706662297,0.07650944468083325
1700007031427728600,10.846728759765625,3.026694092285633,-9.327627881661057,0.069628352530743
1700007031437673500,10.856673583984374,3.033442982023954,-9.325465150669217,0.06583772807612549
1700007031447618600,10.86661865234375,3.0382132651656866,-9.323905061745643,0.06646694305748678
1700007031457563600,10.876563720703125,3.040507805843651,-9.32312764763236,0.07068712260236498
1700007031467508500,10.886508544921876,3.037999622415006,-9.323906230789422,0.07563367105987853
1700007031477454600,10.89645458984375,3.0321722314357755,-9.325744552132488,0.08254861981379799
1700007031487399700,10.906399658203124,3.0276088690429925,-9.327107072657347,0.09492396199861541
1700007031497344500,10.916344482421875,3.0234850671112534,-9.328246890342236,0.11268517107339575
1700007031507289600,10.92628955078125,3.0178029298216105,-9.329811655440926,0.13359419492091984
1700007031517234700,10.936234619140626,3.009077479313314,-9.332273077118396,0.15648299440881236
1700007031527180500,10.9461806640625,3.000324556276202,-9.334655588340759,0.18079324153456836
1700007031537125600,10.956125732421874,2.994152881903946,-9.33612799898088,0.2053031942171976
1700007031547070500,10.966070556640625,2.991620440816879,-9.336379927915335,0.22938721310533583
1700007031557015600,10.976015625,2.9926699498698115,-9.33547216542065,0.25147487054448575
1700007031566960600,10.985960693359376,2.9964164429217575,-9.33375717819631,0.2698683496408164
1700007031576906800,10.99590673828125,3.0024577689126133,-9.331421428725124,0.2831787350528873
1700007031586851600,11.0058515625,3.0109815593689677,-9.32842283143103,0.2913335460663773
1700007031596796400,11.01579638671875,3.0209283683657646,-9.325073521003127,0.2956207401325926
1700007031606741800,11.02574169921875,3.0315564376249906,-9.321567558708786,0.2973359465526417
1700007031616687600,11.0356875,3.042334144487977,-9.318064519023896,0.297093808359839
1700007031626632700,11.0456328125,3.051673342980444,-9.31506825981736,0.2952369467130862
1700007031636577500,11.05557763671875,3.0579598759040234,-9.313117710271477,0.2917089187174104
1700007031646522600,11.065522705078125,3.0605203740417957,-9.312432650616765,0.2866968444427475
1700007031656467700,11.0754677734375,3.0598285923853514,-9.312863443249464,0.2799809071259573
1700007031666413600,11.08541357421875,3.057371554622054,-9.31391733621657,0.271674175220076
1700007031676358700,11.095358642578125,3.053343029758334,-9.315506066712736,0.2623949450202286
1700007031686303500,11.105303466796874,3.0472748157605527,-9.31775939859748,0.25275913820136336
1700007031696248600,11.11524853515625,3.038388913993537,-9.320910556104778,0.24333461777931079
1700007031706193700,11.125193603515624,3.028240152683854,-9.32443113144636,0.23482575089745222
1700007031716139500,11.135139404296876,3.018165041132271,-9.327885071292519,0.22717582066617906
1700007031726084600,11.145084716796875,3.0089173203155397,-9.33103681332171,0.22037481714813037
1700007031736029700,11.15502978515625,3.0005308925032614,-9.333865899267792,0.21488595567457378
1700007031745974500,11.164974609375,2.993759206411242,-9.336122153761982,0.21127373826047405
1700007031755919600,11.174919677734374,2.988330751621723,-9.337942939448356,0.20753672542292623
1700007031765865500,11.184865478515626,2.9849294187456366,-9.3390739893049,0.20568046656437217
1700007031775810600,11.194810546875,2.9827596734911204,-9.339754957306384,0.2061445038795471
1700007031785755600,11.204755615234374,2.9804087264508006,-9.340447031223773,0.20887909820890052
1700007031795700500,11.214700439453125,2.9775089133560657,-9.34127471421957,0.21313485595723614
1700007031805645800,11.224645751953124,2.9745626307711004,-9.342111165043711,0.2175250354738906
1700007031815591700,11.234591796875,2.9715874143525958,-9.342958137261867,0.22176930371383205
1700007031825536500,11.24453662109375,2.969193504953384,-9.343614555343985,0.2261682145262137
1700007031835481600,11.254481689453126,2.9671050082415342,-9.344174527314305,0.23034866028232498
1700007031845426400,11.264426513671875,2.965633182123303,-9.344542776104808,0.23434797731786966
1700007031855371800,11.274371826171874,2.9643533714458346,-9.344866601231693,0.23757214526245368
1700007031865317600,11.284317626953126,2.9638477600112556,-9.344974737781286,0.23966104383310302
1700007031875262500,11.294262451171875,2.963930469858646,-9.34490927132964,0.24109940607314928
1700007031885207600,11.30420751953125,2.964476997825503,-9.344718717193603,0.24187846415424719
1700007031895152600,11.314152587890625,2.9646684287443756,-9.344676047095655,0.24113517150627448
1700007031905097500,11.324097412109374,2.9640196094468236,-9.344935574814677,0.23901116508962586
1700007031915043600,11.334043701171876,2.9623914237231013,-9.345530618098378,0.23592306288117543
1700007031924988400,11.343988525390625,2.959506808197498,-9.346562299233675,0.23127527360795064
1700007031934933800,11.353933837890626,2.9580273832947013,-9.347153835386036,0.22625293366760013
1700007031944878600,11.363878662109375,2.9605013721928,-9.346420260414481,0.22418871288048103
1700007031954824700,11.37382470703125,2.9637586204230786,-9.345384487625957,0.22440365253910421
1700007031964769500,11.38376953125,2.9652389221087097,-9.344912778460978,0.22440849311100317
1700007031974714600,11.393714599609375,2.966127979902923,-9.344624609169363,0.22465658612055703
1700007031984659700,11.40365966796875,2.968196895131469,-9.343956500649451,0.22515087244352325
1700007031994604500,11.4136044921875,2.9715599418237804,-9.342875135153532,0.2257074834129773
1700007032004550700,11.423550537109374,2.9744094860360026,-9.341929963257908,0.22725962649211287
1700007032014495500,11.43349560546875,2.974308071488142,-9.341896060988306,0.22994281942779196
1700007032024440600,11.443440673828125,2.974134468486905,-9.341848130193352,0.2340495606268756
1700007032034385700,11.4533857421875,2.974807837703824,-9.341500924190878,0.23932200287077574
1700007032044330500,11.46333056640625,2.9735332877233622,-9.341727134162188,0.24622279523517934
1700007032054276600,11.473276611328124,2.970387683174014,-9.342515654191374,0.25411210544658824
1700007032064221700,11.4832216796875,2.9665073346093296,-9.343522200885415,0.2623615359409712
1700007032074166500,11.49316650390625,2.962158784011006,-9.34468656848967,0.2698710347882472
1700007032084111600,11.503111572265626,2.95826323787719,-9.345722925800084,0.27667837671553713
1700007032094056700,11.513056640625,2.955579697881639,-9.346400386670231,0.2823682041212916
1700007032104002800,11.5230029296875,2.9540099643468856,-9.34675577597916,0.2870005035644397
1700007032113947600,11.53294775390625,2.9532752203315495,-9.346857482787966,0.2912740709641017
1700007032123892500,11.542892578125,2.9526112034648655,-9.346939315852522,0.2953462888390757
1700007032133837800,11.552837890625,2.9518016406476497,-9.347082523715496,0.2988884184253402
1700007032143783700,11.56278369140625,2.950148320482671,-9.347500456866621,0.3021131343591958
1700007032153728500,11.572728515625,2.9476015586093065,-9.348204221221804,0.30513617197480053
1700007032163673600,11.582673583984375,2.9446789491608736,-9.349044179177284,0.3076602105597034
1700007032173618400,11.592618408203125,2.941958876547217,-9.34983153016269,0.3096714407842606
1700007032183563800,11.602563720703126,2.9398844083607196,-9.350437094840407,0.311099793086946
1700007032193509600,11.612509521484375,2.9382179364532233,-9.350930431315302,0.3120930053753778
1700007032203454500,11.622454345703124,2.937061459894478,-9.35125250287652,0.31329617062006143
1700007032213399600,11.632399658203125,2.9368451867952943,-9.3512706230551,0.31480518694352355
1700007032223344600,11.6423447265625,2.9372625354245305,-9.351074223700165,0.31665085134282706
1700007032233289500,11.65228955078125,2.937670239442587,-9.350876070779561,0.3187475313611328
1700007032243235800,11.66223583984375,2.9380735595464706,-9.35065629054904,0.32150782638732345
1700007032253180700,11.6721806640625,2.9383380557015535,-9.350459306672215,0.324760617638193
1700007032263125800,11.682125732421875,2.9382430708944796,-9.350362860560416,0.3283514086717739
1700007032273070800,11.69207080078125,2.9384464845120903,-9.35016821477115,0.3320796719472855
1700007032283015700,11.702015625,2.9388939360186455,-9.349917454880476,0.3351331777663901
1700007032292961800,11.7119619140625,2.940073793452978,-9.349471464678645,0.3372643811088055
1700007032302906600,11.72190673828125,2.941434852673113,-9.348999170991778,0.33847189373504366
1700007032312851700,11.731851806640625,2.943207123042643,-9.348423416930437,0.3389581428820267
1700007032322796800,11.741796875,2.945099804921448,-9.34783889504075,0.33866482249125834
1700007032332741600,11.75174169921875,2.9476857297614214,-9.347069664233922,0.3373695219837129
1700007032342687500,11.7616875,2.9508035695210095,-9.346156056520343,0.33543332975674417
1700007032352632800,11.7716328125,2.953912056930363,-9.345255308288335,0.33316114704106004
1700007032362577700,11.78157763671875,2.95610839793086,-9.344652666220068,0.3305765739079565
1700007032372522800,11.791522705078124,2.9577824686229226,-9.344226549762487,0.3276219253534451
1700007032382468600,11.801468505859376,2.9583529619872566,-9.344218366456031,0.3226617091301828
1700007032392413700,11.81141357421875,2.960974250401556,-9.343581237596274,0.3170151911431923
1700007032402358800,11.82135888671875,2.9669097779303786,-9.341859820631147,0.3122504609594121
1700007032412303600,11.8313037109375,2.971300121843815,-9.340616542571782,0.30766189106013625
1700007032422249000,11.8412490234375,2.9728745315536855,-9.340299147185682,0.3020155374699272
1700007032432194800,11.85119482421875,2.9745342814594506,-9.339961878055334,0.2960463268672116
1700007032442139600,11.8611396484375,2.9775401852771637,-9.339201415076852,0.28980503959115594
1700007032452084700,11.871084716796876,2.9810952474102375,-9.338256827703118,0.28357379878507927
1700007032462029600,11.881029541015625,2.9839798629358407,-9.337501625421643,0.2780165847830474
1700007032471974700,11.890974609375,2.985286561620235,-9.337221639436482,0.27338748194398355
1700007032481920800,11.900920654296876,2.989077186074853,-9.336129752546547,0.26926981749208645
1700007032491865600,11.910865478515625,2.995225479571521,-9.334282663375138,0.26495882242517543
1700007032501810700,11.920810791015626,3.0002623046949504,-9.332795639687776,0.26028644669996576
1700007032511755800,11.930755859375,3.0030577806323766,-9.332033423143624,0.25532891562413423
1700007032521702000,11.940701904296875,3.0069299458906054,-9.330933352947234,0.24989572986057026
1700007032531646700,11.950646728515625,3.0123154383212327,-9.329345206972956,0.24423397777182979
1700007032541591600,11.960591552734375,3.0178035143435,-9.32771497542262,0.23869426289387047
1700007032551537000,11.970536865234376,3.0225159298181534,-9.326326151412724,0.23326162511957807
1700007032561481700,11.980481689453125,3.0275059931904074,-9.324855494338273,0.22727365501746533
1700007032571427800,11.990427734375,3.032249096064269,-9.32348186789751,0.2202680505717173
1700007032581372700,12.00037255859375,3.0369319931834933,-9.32213688302934,0.21262003830289466
1700007032591317800,12.01031787109375,3.0414284278199073,-9.320855026525258,0.20446243254411964
1700007032601262800,12.020262939453126,3.0449875816062093,-9.319853156006335,0.19691592615470288
1700007032611207700,12.030207763671875,3.0481834550380706,-9.318943055424093,0.19034197285817936
1700007032621153800,12.04015380859375,3.0512834668800233,-9.318053413107991,0.18421074009416624
1700007032631098600,12.0500986328125,3.0545585430279374,-9.317096550774574,0.17820158107355236
1700007032641043700,12.060043701171875,3.058251260066032,-9.315994727012514,0.17240098676970228
1700007032650988800,12.06998876953125,3.061984893636405,-9.31486543072164,0.166992990246322
1700007032660933600,12.07993359375,3.0659473675265905,-9.31365254780054,0.161873437009193
1700007032670879700,12.089879638671874,3.0705975314199923,-9.312205856123565,0.1569583933682181
1700007032680824800,12.099824951171875,3.075487933810055,-9.31066856355369,0.15231859560520386
1700007032690769700,12.109769775390625,3.0799712167039512,-9.309257527711987,0.14803930171765387
1700007032700714800,12.11971484375,3.0844702816888687,-9.307823695516586,0.1443782767257653
1700007032710660600,12.12966064453125,3.0887635949686167,-9.306440716725588,0.14172420941987074
1700007032720605700,12.139605712890624,3.0928871046394106,-9.305101577076316,0.13975024246578105
1700007032730550800,12.14955078125,3.096857177314162,-9.303800431349872,0.13844274919694288
1700007032740495600,12.15949560546875,3.100313455247879,-9.302661782708764,0.13759863565615377
1700007032750441000,12.16944091796875,3.1034684121474623,-9.301616657570005,0.13709786479347386
1700007032760386800,12.17938671875,3.106251028603315,-9.300696620115637,0.13651970871249214
1700007032770331600,12.18933154296875,3.1088655950158834,-9.299836788415908,0.13570758861200882
1700007032780276700,12.19927685546875,3.111001438000798,-9.299128932407498,0.1350789261864964
1700007032790221600,12.2092216796875,3.113679717299342,-9.298238705569505,0.1347102481377311
1700007032800166700,12.219166748046876,3.1162709028363227,-9.297368936997652,0.13488650888693518
1700007032810112800,12.22911279296875,3.1180808748677373,-9.296744667619466,0.13595580948572605
1700007032820057600,12.2390576171875,3.119140028531849,-9.296358298650384,0.13799339799424631
1700007032830002700,12.249002685546875,3.1189062197759747,-9.296414997273683,0.13952914706100708
1700007032839947800,12.25894775390625,3.1173978610396382,-9.29692236227393,0.13944667467563412
1700007032849894000,12.268893798828126,3.1189155721262094,-9.296407983011006,0.13989587061470374
1700007032859838700,12.278838623046875,3.1229613403856753,-9.29502032804489,0.14177376591633073
1700007032869783600,12.288783447265626,3.125184861654043,-9.294249343672394,0.1433638298530597
1700007032879729000,12.29872900390625,3.1270524090915917,-9.293612799334525,0.14392272411114534
1700007032889673700,12.308673828125,3.1304093183040616,-9.292481749477982,0.1439114720647689
1700007032899619800,12.318619873046876,3.134325322704017,-9.291170666879415,0.14336540988879276
1700007032909564700,12.328564697265625,3.1381384512513875,-9.289898747247458,0.14235279878014698
1700007032919509800,12.338509765625,3.140317841117084,-9.2891651722759,0.1422462696657516
1700007032929454800,12.348454833984375,3.1413422157287596,-9.28880978296697,0.14284581559463402
1700007032939399700,12.358399658203124,3.1448554845467207,-9.287612682136892,0.1432156626871787
1700007032949345800,12.368345703125,3.1499197821989653,-9.28590354013145,0.14291628701495937
1700007032959290600,12.37829052734375,3.153264416451752,-9.284780673581361,0.142034828005312
1700007032969235700,12.388235595703126,3.1551138437107205,-9.284165172031521,0.14119112545647658
1700007032979180800,12.398180908203125,3.1584955951035023,-9.283023600780963,0.14053904562275857
1700007032989125600,12.408125732421874,3.163350049397349,-9.281382263314724,0.13987791483290493
1700007032999071700,12.41807177734375,3.168019794774055,-9.279795286384225,0.13935699623133987
1700007033009016800,12.428016845703125,3.17265505335927,-9.278219415369628,0.13893297126614487
1700007033018961700,12.437961669921876,3.17779270850867,-9.2764640961349,0.1387525549316313
1700007033028906800,12.44790673828125,3.18308000126183,-9.274655000886321,0.13842636431772262
1700007033038852600,12.4578525390625,3.1893495830506082,-9.272508051985502,0.13791744668120517
1700007033048797700,12.467797607421875,3.1971056040048595,-9.26984672382176,0.13729604511354118
1700007033058742800,12.47774267578125,3.2054499462410804,-9.266967368993162,0.13704581494582815
1700007033068687600,12.4876875,3.2144340476855633,-9.263853620886803,0.13720097810807638
1700007033078632700,12.4976328125,3.224102624262869,-9.260490281933546,0.1373688363551162
1700007033088578800,12.507578857421874,3.2340541094347834,-9.25703108139038,0.13660809024884366
1700007033098523600,12.517523681640625,3.242931827895343,-9.253940129637718,0.1353856175154913
1700007033108468700,12.52746875,3.2503198923200367,-9.251368817844986,0.13407943942090494
1700007033118413600,12.53741357421875,3.2555589620172976,-9.249543355983494,0.13293621506937778
1700007033128359000,12.54735888671875,3.258925808101892,-9.248364375331997,0.1323966374331154
1700007033138304800,12.5573046875,3.2602026961699124,-9.247916631564497,0.13229426390402949
1700007033148249600,12.56724951171875,3.2584941386863586,-9.248515766501427,0.13237532978360542
1700007033158194700,12.577194580078125,3.255037568491697,-9.24972105063796,0.13327715572784654
1700007033168139800,12.587139892578126,3.249296979013085,-9.251716023847461,0.13480849348097107
1700007033178084600,12.597084716796875,3.2419296651154754,-9.254280905899405,0.13630653175269253
1700007033188030700,12.60703076171875,3.232413356490433,-9.257591637882589,0.13745206679231486
1700007033197975600,12.6169755859375,3.2204189673140644,-9.26174992660582,0.1387380332159344
1700007033207921000,12.6269208984375,3.205521842433512,-9.26689781088829,0.14002767116767353
