time,seconds_elapsed,z,y,x
1700006751029262600,0.0402626953125,0.9276900149464606,0.31482787369936704,-0.14284675630955024
1700006751039207400,0.05020751953125,1.056369586351514,0.3336652606382966,-0.028301033794973045
1700006751049152500,0.060152587890625,1.1290572214215993,0.3522477960333228,0.056087140337750314
1700006751059097600,0.07009765625,1.0888847855091095,0.32316520167291163,0.07334553272323682
1700006751069043500,0.08004345703125,0.955972106578946,0.3042982963785529,0.045657041336037214
1700006751078988500,0.089988525390625,0.7301338911920785,0.2878217933520675,-0.012729918642994015
1700006751088933400,0.099933349609375,0.4133680351674556,0.27264497474730015,-0.05074050034647807
1700006751098878700,0.109878662109375,0.12011106502413749,0.25615385867357254,-0.06228049681885168
1700006751108823600,0.119823486328125,-0.09564765489697456,0.2425917817890644,-0.05129164968952536
1700006751118768400,0.129768310546875,-0.21637129886150358,0.23680443055927752,-0.0052033773293718695
1700006751128714500,0.139714599609375,-0.24878537573218343,0.21766835293471812,-0.015736754042468964
1700006751138659600,0.14965966796875,-0.270722482252121,0.18231676130741833,-0.050705136772152035
1700006751148604700,0.159604736328125,-0.30338673449158665,0.15622721128314732,-0.10064718021731824
1700006751158549500,0.169549560546875,-0.3703694359183311,0.18339023575782776,-0.10362776693068444
1700006751168494300,0.179494384765625,-0.49625090103745456,0.17987112172096967,-0.019380553904920814
1700006751178440400,0.1894404296875,-0.6337269423604012,0.16865239309221505,0.16731951878694817
1700006751188385500,0.199385498046875,-0.6545932047784329,0.17707126186937092,0.3565270077224821
1700006751198330400,0.209330322265625,-0.5726759690701961,0.14335077857524156,0.49033035188205537
1700006751208275500,0.219275390625,-0.41362464027702806,0.09378419911265373,0.5176309581965208
1700006751218220500,0.229220458984375,-0.19152794950604438,0.04736380872130394,0.5002242616478354
1700006751228165600,0.23916552734375,-0.06606734014749527,-0.011660334916412829,0.49240730428658425
1700006751238111500,0.249111572265625,-0.03739186528325081,-0.019230185648798942,0.4895366442210972
1700006751248056300,0.259056396484375,-0.06572247223258018,-0.011842413485050201,0.49182961399648334
1700006751258001700,0.269001708984375,-0.1095668746560812,-0.02859130371212959,0.5281565899945795
1700006751267946500,0.278946533203125,-0.07963058607578277,-0.05419307021945714,0.6103318555844948
1700006751277891300,0.288891357421875,0.0320545959085226,-0.07973083157986402,0.6848610634006559
1700006751287837400,0.29883740234375,0.18809680601358414,-0.11700403891950845,0.7281763273835182
1700006751297782500,0.308782470703125,0.3629997839331627,-0.15085282476842402,0.7535811830792576
1700006751307727600,0.3187275390625,0.5072065948158502,-0.16729688683003185,0.7793135171636939
1700006751317672400,0.32867236328125,0.5328150833249092,-0.15323095207661389,0.8260485995274036
1700006751327617300,0.3386171875,0.46118718644082546,-0.10215133770257234,0.8482029289945959
1700006751337563400,0.3485634765625,0.33379882389008997,-0.06129910283237695,0.8764801983214914
1700006751347508500,0.358508544921875,0.2228407871365547,-0.03057634004950523,0.9255106250807642
1700006751357453600,0.36845361328125,0.18014847735762596,0.04864741879105568,0.9473197213068604
1700006751367398400,0.3783984375,0.15888590909838676,0.10278291360437869,0.906795695477724
1700006751377343500,0.388343505859375,0.11483400140404701,0.15514526126533745,0.8627254484090954
1700006751387288600,0.39828857421875,0.07543605699539184,0.1933285691872239,0.8388666531115769
1700006751397234400,0.408234375,0.031157354807853695,0.23448095604777336,0.815702854340896
1700006751407179500,0.418179443359375,0.05113397490978241,0.2564189393505454,0.7703028930384666
1700006751417124600,0.42812451171875,0.11509060651361942,0.23069179289788005,0.703443891056627
1700006751427069400,0.4380693359375,0.2107283245384693,0.1785731908649206,0.6320272257704287
1700006751437014500,0.4480146484375,0.31784429891109467,0.10587006596475838,0.5294066996535286
1700006751446960400,0.45796044921875,0.29396131902039047,0.0301724354237318,0.40668556172885
1700006751456905700,0.46790576171875,0.17297522472739219,-0.05114537308663129,0.3347470279930159
1700006751466850600,0.4778505859375,0.08013327490091324,-0.08547551271170377,0.3004598324605264
1700006751476795400,0.48779541015625,0.014507833302021026,-0.09339198492467403,0.26815844045039267
1700006751486740500,0.497740478515625,0.07665595417916775,-0.14361819733977316,0.2088941313812509
1700006751496685600,0.507685546875,0.185745274451375,-0.2781444489464164,0.17290201336070893
1700006751506631700,0.517631591796875,0.3281809840083122,-0.4444596312627196,0.11988060813597402
1700006751516576500,0.527576416015625,0.4190782295078039,-0.6022872634798287,-0.009337846785597502
1700006751526521300,0.537521240234375,0.3841086229354143,-0.6828060305669903,-0.2304096332219429
1700006751536466700,0.547466796875,0.2579331433057785,-0.6819146346852183,-0.5487774993494152
1700006751546411500,0.55741162109375,0.06745499511361122,-0.6221019710183143,-0.9452077706541866
1700006751556357600,0.567357666015625,-0.19862696785628794,-0.44335693071782584,-1.306639939944446
1700006751566302500,0.577302490234375,-0.4439268395602703,-0.14457505967319012,-1.5614438453137873
1700006751576247600,0.58724755859375,-0.586083732175827,0.17674802126437425,-1.678165852421522
1700006751586192600,0.597192626953125,-0.667177961063385,0.4129164920076728,-1.63201565727368
1700006751596137500,0.607137451171875,-0.5577548787921667,0.5434381841480732,-1.4586241068303585
1700006751606082600,0.61708251953125,-0.25589140834510327,0.5458931760847568,-1.1871142735928297
1700006751616028700,0.627028564453125,0.17185352722108363,0.5149249141082167,-0.962719827273488
1700006751625973500,0.636973388671875,0.6509288370519876,0.4575096669718623,-0.8154683879978954
1700006751635918600,0.646918701171875,1.0249544573903082,0.2797729269310832,-0.5986319193100557
1700006751645863400,0.656863525390625,1.2117834354251622,0.078962477555871,-0.3054713587459177
1700006751655808500,0.66680859375,1.2177724467068909,-0.20650661519020794,-0.17314236145522444
1700006751665754600,0.676754638671875,1.0639379757791756,-0.5718719592109323,-0.02903996079508215
1700006751675699500,0.686699462890625,0.8223059789329766,-0.9459799971356987,0.08857340566180646
1700006751685644500,0.69664453125,0.47408758454620836,-1.2791262023359535,0.0559378680601716
1700006751695589600,0.706589599609375,0.04000993882715702,-1.4852537550807,-0.017784297689422964
1700006751705534500,0.716534423828125,-0.43419864175021644,-1.6762714169770478,-0.015205240981653332
1700006751715479600,0.7264794921875,-0.803866066879034,-1.79793117274791,0.017257935727760194
1700006751725425400,0.73642529296875,-0.9277525587886571,-1.8444187831565737,0.06092146515902131
1700006751735370500,0.74637060546875,-0.793809952288866,-1.851966129796207,0.1049647876881063
1700006751745315600,0.756315673828125,-0.4778559971690178,-1.7961635785534977,0.16018742015101015
1700006751755260400,0.766260498046875,-0.0780997232466936,-1.729931110972166,0.3060184712346643
1700006751765205500,0.77620556640625,0.2897217817544937,-1.5750225810721517,0.5147106868356466
1700006751775151600,0.786151611328125,0.5595265646398068,-1.4406319385439157,0.7019839015066623
1700006751785096400,0.796096435546875,0.702708124127984,-1.3099319672271608,0.7182616670906543
1700006751795041500,0.80604150390625,0.761360804104805,-1.1625725375324487,0.6627968964349478
1700006751804986400,0.815986328125,0.746062112686038,-0.9831927064597606,0.6061702423930168
1700006751814931700,0.825931640625,0.7858002488344907,-0.7794011954471468,0.536771127474308
1700006751824876500,0.83587646484375,0.9624071080625056,-0.6109320499673485,0.5190313630463556
1700006751834822400,0.845822509765625,1.1684873145341872,-0.5169084891408682,0.5245268551900982
1700006751844767500,0.855767578125,1.3109645251452922,-0.4385229346901178,0.5771653894439339
1700006751854712600,0.865712646484375,1.3393454009771346,-0.4151315377086401,0.6846792040277272
1700006751864657400,0.875657470703125,1.1542957075744866,-0.3981064608886838,0.7029827763509005
1700006751874602500,0.8856025390625,0.9735077632695436,-0.3301853095680475,0.5606248447379097
1700006751884548400,0.89554833984375,0.7768518032252788,-0.3742623517036438,0.46155740799270567
1700006751894493700,0.90549365234375,0.6009393560022115,-0.5278182979509234,0.3085323537517339
1700006751904438500,0.9154384765625,0.4506090938031673,-0.7151739302083849,0.1335399074504152
1700006751914383400,0.92538330078125,0.23852292491495608,-0.8667407484650611,-0.07466666179178282
1700006751924328400,0.935328369140625,0.0024736966371536255,-0.9891454773843288,-0.28656762857250867
1700006751934273500,0.9452734375,-0.2733399712741375,-1.118349072663486,-0.40466088750082996
1700006751944219600,0.9552197265625,-0.5654834272176027,-1.1596736012205482,-0.4939410166598856
1700006751954164500,0.96516455078125,-0.7455395501166582,-1.1675871508240698,-0.5537829064212739
1700006751964109300,0.975109375,-0.8656751650601625,-1.1811793305858969,-0.49392720733024176
1700006751974055200,0.98505517578125,-0.9443009580075741,-1.190332943378389,-0.4062345300257206
1700006751984000300,0.995000244140625,-1.0137100097984075,-1.150091241621971,-0.3450622684434056
1700006751993946400,1.0049462890625,-1.0703466737776994,-1.1421429129660128,-0.2935777265302837
1700006752003891200,1.01489111328125,-1.012942532557249,-1.2003072249040008,-0.13535691201081498
1700006752013836300,1.024836181640625,-0.9726800802737474,-1.3166677052229643,0.10830105597134679
1700006752023781400,1.034781494140625,-1.023684875845909,-1.409151927652955,0.32295937690250576
1700006752033726200,1.044726318359375,-1.0661404542595148,-1.3641741372853518,0.38483006907775996
1700006752043671300,1.05467138671875,-1.0804957273483276,-1.1772183180004359,0.3177931532457471
1700006752053617200,1.0646171875,-1.0034732779443263,-0.9480851527214049,0.14323212063163518
1700006752063562200,1.074562255859375,-0.7874088530749082,-0.6915712285637855,0.0020261081332806495
1700006752073507300,1.08450732421875,-0.4638537753015756,-0.4797714754015207,-0.06765164106371813
1700006752083452200,1.0944521484375,-0.13640285913348196,-0.3239016992539167,-0.04850878663850017
1700006752093397500,1.1043974609375,0.11631634891629218,-0.11768120752871036,0.003929813729599118
1700006752103343400,1.11434326171875,0.2589338447809219,0.04755436285734176,0.05844499204289168
1700006752113288200,1.1242880859375,0.1982458595842123,0.15769640705287455,0.12674438382508232
1700006752123233300,1.1342333984375,-0.09140110336840153,0.3122340578138828,0.09926072169444523
1700006752133178000,1.14417822265625,-0.7252145549684762,0.5772767408639192,-0.054608774880878626
1700006752143123200,1.154123291015625,-1.5829922447770832,0.959071826159954,-0.14938528209966606
1700006752153068300,1.164068359375,-2.373501986476779,1.451201847875118,-0.09609451274848542
1700006752163014100,1.17401416015625,-3.0815298443228003,1.978613026329875,0.07113804927421734
1700006752172959200,1.183959228515625,-3.5931016486108303,2.4983546930700538,0.2143100737490691
1700006752182904300,1.193904296875,-3.76272405577898,2.779848744705319,0.31296010706610977
1700006752192849200,1.20384912109375,-4.043970270133018,3.039154345408082,0.5118399537049234
1700006752202794200,1.213794189453125,-4.5561920627623795,3.5207834313750266,0.8898558127231896
1700006752212740000,1.223739990234375,-5.331426493918896,3.9409564703822135,1.5419181838497518
1700006752222685400,1.233685546875,-6.280633344146609,4.179711450487375,2.1205345027543605
1700006752232630300,1.24363037109375,-6.790797619724273,4.310796329468489,2.490991178564727
1700006752242575000,1.2535751953125,-6.491639901104569,4.398676857495308,2.5245871586963533
1700006752252520400,1.2635205078125,-5.857139636284113,4.402489109259844,2.2420427212253213
1700006752262466300,1.27346630859375,-5.447424862927198,4.227980683615804,1.8072288701862096
1700006752272411400,1.283411376953125,-5.284965771517157,3.9874318058311937,1.0609718925151974
1700006752282356200,1.293356201171875,-5.313516158697009,3.8690339744657276,0.44528424551859497
1700006752292301000,1.303301025390625,-5.493288788479566,3.5143104359686372,0.2653114169888198
1700006752302246400,1.313246337890625,-5.453190586847066,3.0859774713814256,0.23524039611294864
1700006752312191200,1.323191162109375,-4.496545403312147,2.9746745667129755,0.7136239242874085
1700006752322137300,1.333137451171875,-2.994867459914088,2.4537089111357924,2.7929332672059535
1700006752332082200,1.343082275390625,-1.6099077242314814,2.5115759936928748,3.2370743340387937
1700006752342027300,1.35302734375,-0.5354308187812566,3.4186832393378017,1.2118737440571188
1700006752351972400,1.362972412109375,-0.11748130104243755,3.5992221773177384,-0.16951207866147158
1700006752361917200,1.372917236328125,-0.06851984786614776,3.029980274349451,-0.6540238804578781
1700006752371862300,1.3828623046875,-0.3751905724644661,2.520674661427736,-0.9199991681829094
1700006752381808400,1.392808349609375,-0.6759598179340363,2.399300444599986,-1.0234132192976773
1700006752391753200,1.402753173828125,-0.8370740706063806,2.6021903305977583,-1.0884539928764103
1700006752401698300,1.4126982421875,-0.8425789516329765,2.6017688903152942,-1.2453569114640355
1700006752411643400,1.422643310546875,-0.3507259202282876,2.3478274469941853,-1.5374208724305032
1700006752421588200,1.432588134765625,0.12647482790239153,1.9533938293993471,-1.596114761200547
1700006752431534300,1.442534423828125,0.5590303055554628,1.5114508571326732,-1.2974218836136162
1700006752441479200,1.452479248046875,0.470908369988203,1.5054758743762968,-0.8630601602561772
1700006752451424300,1.46242431640625,0.08675824599862098,2.1430092232823372,-0.9634734221197664
1700006752461369300,1.472369384765625,0.1423661514520645,2.713465762737393,-1.6144569119684398
1700006752471314200,1.482314208984375,0.35556232740879057,2.726621596908569,-2.0636535086251793
1700006752481259300,1.49225927734375,0.6530033052384853,2.4408137737274167,-2.1546306874930856
1700006752491205000,1.502205078125,0.9956009371340274,2.2863158704549074,-2.199017233969271
1700006752501150500,1.512150390625,1.254806000071764,2.060326263898611,-2.5091388296738266
1700006752511095300,1.52209521484375,1.636006480475515,1.625699752125144,-2.945188944509625
1700006752521040100,1.5320400390625,2.048530466034263,1.440840028336644,-2.9614515125244854
1700006752530985500,1.5419853515625,2.0246607840165494,1.7294073793590068,-2.6212299621105193
1700006752540931300,1.551931396484375,0.8000478237651288,2.240011799919605,-2.044525760437548
1700006752550876400,1.56187646484375,1.7828281500317156,1.9209160396426914,-1.5374771326623855
1700006752560821200,1.5718212890625,3.7514839921012517,1.0768453881472348,-1.1055331379711628
1700006752570766300,1.581766357421875,5.596053581905364,0.9624246437191962,-0.36198289850819854
1700006752580711400,1.59171142578125,8.671693199145793,1.2602192572921513,0.8155119348786771
1700006752590656300,1.60165625,13.118576745927333,1.1642091988235712,2.3395181760713455
1700006752600602000,1.61160205078125,17.219149777770042,0.935973859167099,3.376177099780738
1700006752610547200,1.621547119140625,14.771969391620159,0.7641729389160871,2.8978081846535204
1700006752620492300,1.6314921875,6.022222646456957,0.4064396972090006,1.5609686290174722
1700006752630437400,1.641437255859375,-1.2358137148320674,-0.10296060825884341,1.5097237410791218
1700006752640382200,1.65138232421875,-5.773316859215497,-0.1458908184468746,2.038965349831432
1700006752650328000,1.661328125,-8.295319554376603,-0.2574012283861637,2.079478854266554
1700006752660273400,1.6712734375,-8.795715884655714,-1.1322995643436908,1.117121138303727
1700006752670218200,1.68121826171875,-7.164893967211246,-1.9550182157307863,-0.26601054170150307
1700006752680163300,1.691163330078125,-3.1349957693114874,-2.412936755764484,-1.1658839271027595
1700006752690108400,1.7011083984375,2.6987296736374495,-2.7556132981151342,-0.94850001713261
1700006752700053200,1.71105322265625,7.099393613296747,-2.5914029791235924,0.2863916509510949
1700006752709999400,1.720999267578125,5.820564932602643,-2.164885539525747,0.8809862775690853
1700006752719944200,1.730944091796875,1.286538816680014,-1.6102122601360083,0.4495051876818761
1700006752729889300,1.74088916015625,-1.7085530996397136,-1.3470961612343788,-0.3937864787977189
1700006752739834400,1.75083447265625,-3.013174393238127,-1.1570564044594764,-0.781774208188802
1700006752749779200,1.760779296875,-2.336615440367162,-0.5771119056910277,-0.9173159204483031
1700006752759725300,1.770725341796875,-1.5974752358987927,0.032604046484827995,-1.253169484911114
1700006752769670100,1.780670166015625,-0.9398942474812269,0.43891748696565624,-1.5739024910010397
1700006752779615200,1.790615234375,-0.3664715516969561,0.8985703034460544,-1.7962056641295552
1700006752789560300,1.800560302734375,-0.4865440382763743,1.3035370054930449,-1.6611391681663692
1700006752799505200,1.810505126953125,-1.2833601866438984,1.5334984382897614,-1.2842398920878768
1700006752809450200,1.8204501953125,-2.0456702542975544,1.2072329325139521,-1.074685945091024
1700006752819396400,1.830396240234375,-1.6620473690524695,0.6677899554818868,-1.1675062676075845
1700006752829341200,1.840341064453125,-0.8962395224109292,0.11580781487226485,-0.9460283663220703
1700006752839286300,1.850286376953125,-0.16331687728315591,0.06988485260903834,-1.0657777584269643
1700006752849231400,1.8602314453125,0.7062801373958587,-0.09203180248737335,-1.176988600897789
1700006752859176200,1.87017626953125,-0.2575526195555925,-1.0275275227487086,-0.01412212192006409
1700006752869122300,1.880122314453125,-0.3991843192532658,-2.3403367989778516,0.8966388969920575
1700006752879067100,1.890067138671875,-0.35479338886290784,-2.303810026091337,0.5580986141959204
1700006752889012200,1.90001220703125,0.15528496199697256,-1.869094082468748,-0.22501140917390583
1700006752898957300,1.909957275390625,0.4861003861621022,-2.169479297056794,-0.43178445674795657
1700006752908902100,1.919902099609375,0.9388616895630956,-2.1405916407465932,-0.010033208638615905
1700006752918847200,1.92984716796875,1.631596993470192,-1.171594632899761,-0.5093952274339273
1700006752928793000,1.93979296875,0.9558221767142414,0.24818799436092376,-0.7737684502571821
1700006752938738400,1.949738525390625,-0.4127466883987188,1.3522294324696063,-0.8456912384346127
1700006752948683300,1.959683349609375,0.6435267441019416,1.6583441306203603,0.49345633841548114
1700006752958628000,1.969628173828125,0.2501008422449231,0.6345867740601301,1.4902316896237433
1700006752968572700,1.97957275390625,0.051663259480893606,0.09465046055316924,0.603921732813865
1700006752978517500,1.989517578125,0.6966790730968118,0.6142354754269123,-0.8935862314231693
1700006752988463600,1.999463623046875,0.46373862448930736,1.3313789521425963,-1.9425364814288912
1700006752998408400,2.009408447265625,-0.1547425256833434,1.818656857651472,-2.1312965736567975
1700006753008353800,2.019353759765625,-0.7319146371290087,2.080057969328761,-1.8405913338229059
1700006753018298600,2.029298583984375,-0.5547324622310698,2.1503981644898653,-1.3168116437382995
1700006753028243500,2.039243408203125,-0.10377484725117683,1.8877315629214046,-1.0604296023320405
1700006753038189600,2.049189453125,-0.09181333743110298,1.6884709733366965,-1.0032723485447466
1700006753048134700,2.059134765625,0.09263853620886803,1.6903934658318758,-0.9035979223497211
1700006753058079500,2.06907958984375,0.19286518945917486,1.5000474195867777,-0.7620737746797501
1700006753068024600,2.079024658203125,-0.07960369806885718,1.4091601109594105,-0.45691524474266915
1700006753077969700,2.0889697265625,0.015909809054434298,1.3520271878957748,-0.38397940706517547
1700006753087914800,2.098914794921875,-0.03002309008091688,1.1101625513374804,-0.7367366504579782
1700006753097860600,2.108860595703125,0.12032178516536951,0.9791127436697482,-0.9344649889741092
1700006753107805400,2.118805419921875,0.0628960166350007,0.8027776871204376,-0.5112969694020226
1700006753117750500,2.12875048828125,-0.007151040798425674,0.6237058990836143,-0.17135739600090308
1700006753127695600,2.138695556640625,0.3385387118935585,0.36548049483299255,-0.31401604585982856
1700006753137640700,2.148640625,0.5670272956587374,0.43566754525899887,-0.691970310883969
1700006753147585500,2.15858544921875,0.47228784164786336,0.41575580708682536,-1.0662605004426091
1700006753157531400,2.168531494140625,0.19827260146066544,0.601089578127861,-1.051740172985196
1700006753167476700,2.178476806640625,0.07970672005191445,0.6520248155951499,-0.8149844769384712
1700006753177421600,2.188421630859375,0.113613373567909,0.6707657564222812,-0.46165162561479955
1700006753187366400,2.198366455078125,0.3692269878849387,0.38871173281669613,-0.2732191579060629
1700006753197311700,2.208311767578125,0.48792964741587636,0.13462941972017287,-0.3849871958682313
1700006753207257600,2.218257568359375,0.6310089155733585,0.08502338503003119,-0.5175221275271847
1700006753217202700,2.22820263671875,0.5425099633872509,0.011691022315621375,-0.8320840802993625
1700006753227147500,2.2381474609375,0.05054470377974212,-0.13681786967515944,-1.4320220772393046
1700006753237092600,2.248092529296875,-0.11619009218811988,-0.23960955110788343,-1.7251510370887815
1700006753247037700,2.25803759765625,0.34214886521473525,-0.4615075044363737,-1.7632514890328048
1700006753256983600,2.267983642578125,0.7565772230900824,-1.028656819039583,-1.444104729221016
1700006753266928600,2.2779287109375,0.9485748359344899,-1.6390502320855855,-1.0510191652342677
1700006753276873500,2.28787353515625,0.987940193247795,-2.057637463206053,-0.4636631846329197
1700006753286818600,2.297818603515625,0.7532850496768951,-2.3754759168982504,-0.04884526118440553
1700006753296763600,2.307763671875,0.20726678590774536,-2.5925679312497376,-0.24063262881161643
1700006753306708500,2.31770849609375,-0.01770750612616539,-2.8018758675962685,-0.4970278402267024
1700006753316654600,2.327654541015625,0.3019569939494133,-3.202001559352875,-0.7366836050964891
1700006753326599700,2.337599609375,1.066857589552924,-3.850448516461253,-1.068635851271823
1700006753336544500,2.34754443359375,1.4040611803852021,-4.6058659019917245,-1.5374159039944408
1700006753346489600,2.357489501953125,-3.207178085207939,-5.6116743448853486,-4.505434519949556
1700006753356434700,2.3674345703125,2.6972061173319815,-3.7667192628949877,-1.529744930975139
1700006753366379500,2.377379638671875,2.3307214138925074,-4.72922573967874,-1.3660251719795167
1700006753376325600,2.38732568359375,-0.6832452987670898,-6.002216800260544,-2.1724179808571935
1700006753386270500,2.3972705078125,-0.15054112847074866,-6.477738217002153,-1.113064556389302
1700006753396215600,2.407215576171875,-0.6919431306160986,-6.164428054389357,-0.3044792059034109
1700006753406160600,2.41716064453125,-1.6312345898985863,-5.311776037031412,0.12585910715684295
1700006753416105500,2.42710546875,-3.2809213668107984,-4.391453335982561,0.7743235999219119
1700006753426051600,2.437051513671875,-4.1244729628682135,-3.1231670920908448,1.519180428471416
1700006753435996400,2.446996337890625,-3.1533108859419823,-1.6984353179901837,1.7618337311893701
1700006753445941800,2.456941650390625,-3.607967209309339,-0.9711427877038716,1.6667656297460198
1700006753455886600,2.466886474609375,-3.858300399005413,-0.30811317849159237,1.7694699251562356
1700006753465831400,2.47683154296875,-3.0790976487398147,0.47810441897213457,1.7274498155504463
1700006753475776800,2.48677685546875,-2.6169980236291885,0.9178601103276014,1.2186280406229197
1700006753485722600,2.49672265625,-2.4058581956803797,1.2959861517220734,0.9247637522362172
1700006753495667700,2.506667724609375,-2.6024890212833878,1.7067817060530184,1.0482256620582193
1700006753505612500,2.516612548828125,-1.7486697137117384,1.2745716077715157,0.16799480596631763
1700006753515557600,2.5265576171875,-1.9136299742877483,1.2506067948162556,0.37657238221168515
1700006753525502700,2.536502685546875,-1.6423603795468806,1.232845512676239,0.3976471728138625
1700006753535447600,2.546447509765625,-1.1037538533389568,1.0125707766354084,0.14528649587817488
1700006753545393700,2.5563935546875,-0.6258918648205697,0.998278047388792,-0.026887714664638043
1700006753555338500,2.56633837890625,-0.19007234387025235,1.1942279049903153,-0.0694477763660252
1700006753565283600,2.57628369140625,0.0167266783952713,1.4165402843385935,0.02123436507806182
1700006753575228700,2.586228759765625,0.25258476801514623,1.555515624308586,-0.010870426647737621
1700006753585173500,2.596173583984375,-0.11946458381414413,1.6592776120781898,-0.49286703075282273
1700006753595119600,2.60611962890625,-0.05859948848485946,1.7722627707451581,-0.10224990270622074
1700006753605064700,2.616064697265625,0.8439080813448876,1.8384248034387827,-0.04955065124109387
1700006753615009500,2.626009521484375,0.3246772867362946,1.6943915955573319,-0.1586925054181367
1700006753624954600,2.63595458984375,0.2986696428418159,1.8436340625196694,-0.30000980540439487
1700006753634899700,2.645899658203125,0.2343570374071598,1.95501120146811,-0.2542560622282326
1700006753644844500,2.655844482421875,0.09507591942362487,2.085965732067823,-0.12407748443707824
1700006753654790700,2.665790771484375,-0.012957827381044626,2.131465500482917,-0.10300663935765624
1700006753664735500,2.675735595703125,-0.033842575303837656,2.136892201706767,-0.12268902575336396
1700006753674680800,2.685680908203125,-0.06072597911953926,2.281563707491755,-0.17645930398348716
1700006753684625700,2.695625732421875,-0.18234160348773001,2.4413702385663987,-0.1445211009962484
1700006753694570500,2.705570556640625,-0.3432171520333737,2.549991356804967,-0.26190705190543084
1700006753704515600,2.715515625,-0.2492961747985333,2.6042005013763903,-0.3796545661360025
1700006753714461400,2.72546142578125,-0.13190320962667465,2.659856337624788,-0.34939405057001854
1700006753724406500,2.735406494140625,-0.12894556539747865,2.769002356520295,-0.3692816772142425
1700006753734351600,2.7453515625,-0.23953126170728353,2.875426841497421,-0.4074360513025895
1700006753744296400,2.75529638671875,-0.5718681598186492,2.907866637331247,-0.45477593115903436
1700006753754241800,2.76524169921875,-0.8869523463666439,2.8452146585851907,-0.5887309222163633
1700006753764187600,2.775187744140625,-0.9602736031651496,2.739438408383727,-0.7337154029406606
1700006753774132500,2.785132568359375,-0.8905787201702594,2.498800683271885,-0.8397485505126416
1700006753784077600,2.79507763671875,-0.5595101249616593,2.2601100005745884,-0.7143920591156929
1700006753794022700,2.805022705078125,-0.13886245418004692,2.056193109616637,-0.4472444031430408
1700006753803967700,2.8149677734375,-0.0460883088927716,1.9025252274274824,-0.2873146840801462
1700006753813912600,2.82491259765625,-0.2869605003476143,1.7424650138527153,-0.32155104447454214
1700006753823858400,2.8348583984375,-0.553867150638625,1.6077940930783747,-0.22784908028524367
1700006753833803800,2.8448037109375,-0.4934206460475921,1.4157248763024806,0.0025313633748330175
1700006753843748600,2.85474853515625,-0.18143208742737768,1.0894137778192758,0.24716371108079327
1700006753853693400,2.864693359375,-0.03716039461493492,0.49728199765086173,0.4460992516959086
1700006753863638500,2.874638427734375,0.321767609834671,-0.3862327754825353,0.6262494460865855
1700006753873584400,2.88458447265625,0.43971009864807126,-1.3746721504241228,0.8305198266573249
1700006753883529700,2.89452978515625,0.379316127961874,-2.629588040611148,1.074810667449236
1700006753893474600,2.904474609375,0.8030056506574154,-4.04853713965714,1.328290922999382
1700006753903419400,2.91441943359375,1.3209236091017722,-5.538012896347046,1.595324925997108
1700006753913364700,2.92436474609375,1.2310521995186805,-7.05843207283318,1.5038516341753303
1700006753923309600,2.9343095703125,0.8469710491120814,-8.066596138942241,1.32909157185778
1700006753933255700,2.944255615234375,0.7212064883708953,-7.919186148104071,1.3237170392125843
1700006753943200500,2.954200439453125,0.9985866749465465,-7.240701195606589,1.1963250964652745
1700006753953145600,2.9641455078125,1.343650989216566,-6.7519882888585325,0.5817111431147903
1700006753963090700,2.974090576171875,1.0425883137583731,-7.007005836978554,-0.9282762904018164
1700006753973035800,2.984035888671875,0.12294130174769088,-7.485957812690734,-1.496478913450241
1700006753982980600,2.993980712890625,-0.28870124306771905,-6.689838998937606,-0.3629082331921905
1700006753992926700,3.0039267578125,-0.40218262428641316,-5.196524686998129,0.926915523442626
1700006754002871800,3.013871826171875,-0.9252619110167026,-4.123237283593416,1.3653145394921302
1700006754012816600,3.023816650390625,-1.6061434032618997,-3.350629109287262,0.8597282393544912
1700006754022761700,3.03376171875,-2.119215675240755,-2.5455121655642983,0.33890509752053766
1700006754032706800,3.043706787109375,-2.7542683132469654,-1.5553431903511286,0.19693766306247562
1700006754042653000,3.05365283203125,-2.9527532422840594,-0.8218114734143018,-0.13971680598706007
1700006754052597800,3.06359765625,-2.7409587498188017,-0.4108282875567674,-0.8641835382629185
1700006754062542600,3.07354248046875,-2.7699825997292993,0.3627461014330387,-1.1275156910680233
1700006754072488000,3.083488037109375,-2.7934406322062015,1.178029049861431,-1.1531951989866793
1700006754082432800,3.093432861328125,-2.788828754496574,1.703002187514305,-1.1113069721322506
1700006754092377600,3.103377685546875,-2.674551217931509,2.0413257953524586,-1.0916998429298401
1700006754102323700,3.11332373046875,-2.399693827831745,2.2693016072899104,-1.0226365358367562
1700006754112268800,3.123268798828125,-1.9695313097298144,2.311402965438366,-0.949023310354352
1700006754122214000,3.1332138671875,-1.4416636196792125,2.2142010668367145,-0.9739855368491261
1700006754132158700,3.14315869140625,-1.0479610928379,2.004580995801091,-0.9456666934028267
1700006754142103600,3.153103515625,-0.9511713552337139,1.8167197521090506,-0.7499868118491023
1700006754152049000,3.163048828125,-0.8050747120164334,1.6028806020736694,-0.5686668795593083
1700006754161994800,3.172994873046875,-0.6683189477920531,1.4275380636930466,-0.49583837471380826
1700006754171939800,3.18293994140625,-0.5927204667765646,1.332800509378314,-0.441219334167242
1700006754181884700,3.192884765625,-0.42753567672967907,1.2520505638837813,-0.37853469526059924
1700006754191829800,3.202829833984375,-0.26267010869979857,1.2541507510334253,-0.334644480933994
1700006754201774800,3.21277490234375,0.017877017474174497,1.212415888109803,-0.2305969542212784
1700006754211720700,3.222720703125,0.4846435384172946,1.1749971348196266,-0.13235767539590595
1700006754221665800,3.232665771484375,0.7471756268858909,1.1836252624332904,-0.12868950827717782
1700006754231611000,3.24261083984375,0.8069371448874473,1.4505337393552065,-0.09554967441521585
1700006754241555700,3.2525556640625,0.7893219932198524,1.7612246593803167,0.045338951830193396
1700006754251500800,3.262500732421875,0.6416765131253749,2.068812352693081,0.08584178874082862
1700006754261446000,3.27244580078125,0.403225411337614,2.364500933897495,0.04653393376842141
1700006754271391700,3.282391845703125,0.12969839305877684,2.7244670492231844,-0.07632737981192768
1700006754281336800,3.2923369140625,-0.10145670650191604,3.0362621310979128,-0.12699461399279535
1700006754291281700,3.30228173828125,-0.20467041273899375,3.224382317987084,-0.12405037723444401
1700006754301226800,3.312226806640625,-0.10582060079984366,3.4032992077231405,-0.08358301349598914
1700006754311171800,3.322171875,0.04769691313318908,3.588422550883889,0.008882869559712708
1700006754321116700,3.33211669921875,0.1204055179260671,3.7781677086263894,0.08597042008917778
1700006754331062800,3.342062744140625,0.04508168913349509,3.963885510548949,0.05357552284300327
1700006754341007600,3.352007568359375,-0.13487250776104628,4.130307660371065,-0.03357680050712079
1700006754350953000,3.361952880859375,-0.1868307681331411,4.220763591843843,-0.0673536536309868
1700006754360897800,3.371897705078125,-0.0911107055870816,4.193584493017196,-0.08390928630828857
1700006754370842600,3.381842529296875,0.007555529946088791,4.027967229837179,-0.05104596783276647
1700006754380788700,3.391788818359375,0.061920668796822426,3.726290806394815,0.004724617369100451
1700006754390733800,3.40173388671875,0.11192538394834846,3.296590060585737,0.05777425317447632
1700006754400679000,3.411678955078125,0.19100655598044394,2.8006974714666604,0.1455099659031257
1700006754410623700,3.421623779296875,0.09216266232542693,2.1975977225601673,0.08744310472393407
1700006754420568800,3.43156884765625,0.09929160088989883,1.530921865800023,-0.07629271035734564
1700006754430514000,3.441513916015625,0.11426471361611037,0.8934475536048412,-0.26723798287091777
1700006754440459800,3.451459716796875,-0.07214866935517639,0.1570715531527996,-0.4307246089641005
1700006754450404900,3.46140478515625,-0.018890560164581984,-0.4682990642726421,-0.5161862392809242
1700006754460349700,3.471349609375,0.22284661408914253,-0.9421545936286448,-0.6684965693812817
1700006754470294800,3.481294677734375,0.23170098820673302,-1.3819067778527736,-0.7916542355597018
1700006754480239900,3.491239990234375,0.38484336695075033,-1.8155694130301474,-1.057759725535661
1700006754490185700,3.501185791015625,0.7341174078702927,-2.2394594267338515,-1.4598060100913046
1700006754500130600,3.511130615234375,0.8316250114202499,-2.5381547885388134,-1.8321208809889853
1700006754510076000,3.521075927734375,0.5308826539576054,-2.741821504127979,-2.208313616233319
1700006754520020700,3.531020751953125,0.08694412395954132,-3.0283079572230576,-2.577357502636313
1700006754529965800,3.5409658203125,0.03348024479746818,-3.3055279848009347,-2.8770149874716995
1700006754539911000,3.550910888671875,0.105413846629858,-3.5818472641468047,-3.0576831047892568
1700006754549856800,3.560856689453125,0.1299403851211071,-3.6588387338906525,-2.9991973058119417
1700006754559801900,3.5708017578125,0.27824294088482854,-3.6512720980286595,-2.635195651359856
1700006754569746700,3.58074658203125,0.606706833487749,-3.5660452993810177,-2.147906932196021
1700006754579691800,3.59069189453125,0.7398574128270149,-3.586585398584604,-1.7964692835018037
1700006754589636900,3.600636962890625,0.7641828757882118,-3.77005337575376,-1.4621847219213842
1700006754599581700,3.610581787109375,0.711882195186615,-3.899143866047263,-1.0719419070798903
1700006754609527800,3.62052783203125,0.3776128311753273,-3.79444839681983,-0.7563555431634187
1700006754619472600,3.63047265625,-0.19745967764258385,-3.517166409921646,-0.36322632269803434
1700006754629417700,3.640417724609375,-0.6104173784434795,-3.2626404447108506,0.09801924286652355
1700006754639362800,3.65036279296875,-0.7197007599830627,-2.986839051759243,0.5159222545824945
1700006754649307600,3.6603076171875,-1.0120482140660285,-2.621770644858479,0.7938340638168155
1700006754659253000,3.6702529296875,-1.3096271390616894,-2.378612461358309,0.8264320458870381
1700006754669198800,3.68019873046875,-1.3014099303364752,-2.2125807721585034,0.8755239205099642
1700006754679143700,3.690143798828125,-1.2815677502691745,-1.9737784457802772,1.032101698796451
1700006754689088800,3.7000888671875,-1.470104116743803,-1.595279479420185,1.1150929204117506
1700006754699033900,3.710033935546875,-1.7959972820758818,-1.0604209075689315,1.1999134032808243
1700006754708978700,3.719978759765625,-2.2930559923648834,-0.4380418731749057,1.2237162306074052
1700006754718924800,3.7299248046875,-2.7521675415754316,0.15841478445529936,1.3604670994609593
1700006754728869600,3.73986962890625,-2.863578582793474,0.7272253102689981,1.717851381599903
1700006754738814700,3.749814697265625,-2.648850959485769,1.1558137109220028,2.306818267996609
1700006754748759800,3.759759765625,-2.37538356243968,1.3831588237404822,3.055608928863704
1700006754758704600,3.76970458984375,-1.980350809907913,1.341233991202712,3.774206988301873
1700006754768649700,3.779649658203125,-1.6881097388088702,0.9088549660950899,4.164425618550181
1700006754778595600,3.789595703125,-1.378060623818636,0.3389613212198019,3.9902664447352287
1700006754788541000,3.799541015625,-1.1260650538682937,-0.2317693590015173,3.3487644844591617
1700006754798485800,3.80948583984375,-1.1063105520844458,-0.7179641454488038,2.228762091630697
1700006754808430600,3.8194306640625,-1.1033891116797923,-0.9261708425551652,1.1043317262921482
1700006754818376000,3.8293759765625,-0.9532394667446613,-0.7959042942196131,0.40201252841651436
1700006754828320800,3.83932080078125,-0.6579857698261737,-0.5454086074382066,0.0071204264644533395
1700006754838267000,3.849266845703125,-0.19657880315482615,-0.26088907050192356,-0.18277181159853934
1700006754848211700,3.859211669921875,0.2213508408397436,0.04744096561074257,-0.4170160362809896
1700006754858156800,3.86915673828125,0.48450610270798206,0.3614420330971479,-0.6993187008854002
1700006754868102000,3.879101806640625,0.5688146174669265,0.6870166339993476,-0.9115083301480859
1700006754878046700,3.889046630859375,0.48899815343022346,1.0417015940517187,-1.038903122439608
1700006754887992800,3.898992919921875,0.29795068091750143,1.5013754533201455,-0.9916131826721131
1700006754897937700,3.908937744140625,0.16297347067296505,1.9436790755927562,-0.8804653224349022
1700006754907882800,3.9188828125,0.11703355727493762,2.3413573741972447,-0.7408294727295637
1700006754917827800,3.928827880859375,0.07463701557219028,2.7488825285553933,-0.5010104435894638
1700006754927772700,3.938772705078125,0.12218144155740737,3.1412621362298725,-0.2732428675752133
1700006754937717800,3.9487177734375,0.2091816796183586,3.571923251503706,-0.015755203014612196
1700006754947662800,3.958662841796875,0.2657283272266388,3.9717642811000347,0.20983568654768167
1700006754957608700,3.968608642578125,0.3496154017031193,4.308557610630989,0.23049342078156768
1700006754967553800,3.9785537109375,0.3691156364649534,4.468305689516663,0.02555770816989243
1700006754977499400,3.98849951171875,0.2771206588566303,4.315510498508811,-0.32758608685508367
1700006754987444500,3.998444580078125,0.09538170657032169,3.993347167354822,-0.71195672172755
1700006754997389600,4.0083896484375,0.01620763209038414,3.915447350594401,-0.659366264399141
1700006755007334400,4.01833447265625,-0.15466916818618773,3.9526755497485397,-0.34575931079685684
1700006755017280500,4.028280517578125,-0.3545926055938005,4.0407261736452575,0.011374284516647458
1700006755027225600,4.0382255859375,-0.31522213371396063,4.048587993061543,0.3037975072495639
1700006755037170400,4.04817041015625,-0.28298049080073834,3.8541853649020195,0.49871316296514123
1700006755047115500,4.058115478515625,-0.4818061960995197,3.5563626942783593,0.5801460126899183
1700006755057060600,4.068060546875,-0.5584153885275125,3.1512633057624098,0.5021619151795282
1700006755067006500,4.07800634765625,-0.317785846722126,2.614817756980657,0.5285966619122773
1700006755076951600,4.08795166015625,0.037170349753368644,1.9357143803238868,0.6466597814306616
1700006755086896400,4.097896484375,0.37401864260826256,1.1740800199747086,0.7688258792884647
1700006755096841500,4.107841552734375,0.3977501947969198,0.24601532649695873,0.7810650370061397
1700006755106786600,4.11778662109375,0.2624947886655107,-0.8846592669934034,0.6946341232657433
1700006755116731400,4.1277314453125,0.21322255250699818,-2.0561942786604166,0.5521566934589296
1700006755126677500,4.137677490234375,0.058786572022177276,-3.2217911324501034,0.5218525579469279
1700006755136622300,4.147622314453125,-0.17441081048846244,-4.172905277603864,0.5416000454680994
1700006755146567700,4.157567626953125,-0.2799953375101089,-5.02296435585916,0.485828948809579
1700006755156512500,4.167512451171875,-0.11380637538935988,-5.709560134097933,0.5136153293469921
1700006755166457300,4.177457275390625,0.3955102703830227,-6.134775843447446,0.4667853717740625
1700006755176402700,4.187402587890625,0.9281576324582099,-6.210551507660746,0.27008564565330745
1700006755186348500,4.1973486328125,1.4458973117262124,-6.053366557261348,-0.04497263926845044
1700006755196293600,4.207293701171875,1.7794833696484564,-5.82294159860611,-0.2937191990938969
1700006755206238500,4.217238525390625,1.3449106338888406,-5.3150885225802655,-0.16520426193233578
1700006755216183300,4.227183349609375,0.23409338150229303,-4.722983045896887,0.28163729603085663
1700006755226128600,4.237128662109375,-1.0377852973908186,-4.293717768895625,0.95667353284657
1700006755236073500,4.247073486328125,-1.6761059972822665,-3.8983313806205984,1.569327584300935
1700006755246019300,4.257019287109375,-1.473774329689145,-3.6391011832416056,1.7133583079643546
1700006755255964400,4.26696435546875,-0.7386603119969367,-3.512618829619884,1.081084340891242
1700006755265909500,4.276909423828125,-0.5664911429554224,-3.063783759751916,0.21926186920385807
1700006755275854600,4.2868544921875,-0.7656114472866058,-2.505873982658982,-0.6079855481866747
1700006755285799400,4.29679931640625,-1.2315198170304298,-1.861290715241432,-1.1176811833392828
1700006755295745300,4.306745361328125,-1.9769442163348196,-1.2494295677304268,-1.4374533085078
1700006755305690600,4.316690673828125,-2.5298364575266836,-0.7358487617075443,-1.670979740309715
1700006755315635500,4.326635498046875,-2.6684967401981354,-0.1563046604335308,-1.590961908482015
1700006755325580300,4.336580322265625,-2.59329098482728,0.41016485521197316,-1.4135697440952062
1700006755335525600,4.346525634765625,-2.3694869056165215,0.8523901515513658,-1.3625050350293517
1700006755345470500,4.356470458984375,-2.1324223628163335,1.186141629168391,-1.3344905082918703
1700006755355416600,4.36641650390625,-1.9172785599231719,1.356314655956626,-1.3459225874103604
1700006755365361400,4.376361328125,-1.6542390333890913,1.3841530954748391,-1.415925659571588
1700006755375306200,4.38630615234375,-1.373302615636587,1.2721493490606546,-1.483673792412877
1700006755385251600,4.39625146484375,-1.2548001548528671,1.1021668764084578,-1.5054231212757527
1700006755395196400,4.406196533203125,-1.169964985871315,0.9250520676583052,-1.447955851691216
1700006755405141500,4.4161416015625,-1.0082160885572433,0.8292775715112686,-1.2723435564585028
1700006755415087400,4.42608740234375,-0.9147346717834473,0.8288269051343202,-1.1065148424848914
1700006755425032400,4.436032470703125,-0.8385551760096103,0.8371516658872366,-1.055442534634471
1700006755434977500,4.4459775390625,-0.7322878543555736,0.7974164523482322,-1.0393177676551044
1700006755444922400,4.45592236328125,-0.48002574242353435,0.7532388724476099,-1.0452165433701126
1700006755454867500,4.465867431640625,-0.091855276876688,0.8269225328177213,-1.0224893824510275
1700006755464813600,4.4758134765625,0.2313572528029792,0.980650036239624,-0.9311468774020671
1700006755474758400,4.48575830078125,0.5785468703975901,1.1596703863501547,-0.8943496170111
1700006755484703500,4.495703369140625,0.7664636802017688,1.452972364678979,-0.8534669139374047
1700006755494648600,4.505648681640625,0.8553963476300239,1.7264385926812886,-0.8111036169171333
1700006755504593400,4.515593505859375,0.9287830708801745,1.7102900064349174,-0.7530489028334617
1700006755514538500,4.52553857421875,0.5384288315534591,2.359084754067659,-0.7656560901459306
1700006755524484400,4.535484375,0.30543842459069565,2.724226810726523,-0.4554383405905217
1700006755534429400,4.545429443359375,0.5032452899694443,2.994013473433256,-0.38629970323890445
1700006755544374500,4.55537451171875,0.41853403962850566,3.2697517380207777,-0.38077012616246936
1700006755554319400,4.5653193359375,0.3158803053617477,3.5562294232875105,-0.287274388602376
1700006755564264400,4.575264404296875,0.2886380781710148,3.8654146149247883,-0.13280596715267748
1700006755574209500,4.58520947265625,0.28685996258258817,4.106942566874623,-0.019641908254846928
1700006755584155600,4.59515576171875,0.3466460305035114,4.279947602218389,0.034210239572450514
1700006755594100500,4.6051005859375,0.6189759479522705,4.395419901525974,0.06531575459521263
1700006755604045300,4.61504541015625,0.7059200719118118,4.65419650991857,0.14227189729735254
1700006755613990700,4.62499072265625,0.6955015537500381,4.64960859760642,0.3830771975284442
1700006755623935500,4.634935546875,0.6012123277246951,4.49953318695128,0.49344965294636783
1700006755633880300,4.64488037109375,0.34915479845404623,4.107548131552338,0.5326098065437749
1700006755643826400,4.654826416015625,0.1086345622420311,3.5775492746919393,0.5554089367205277
1700006755653771500,4.664771484375,-0.065002925786376,2.934781532263756,0.43283761906269935
1700006755663716600,4.674716552734375,-0.0637935317303054,2.1087410429775715,0.23123433880936353
1700006755673661400,4.684661376953125,0.039376901620626445,1.1249316659241915,-0.025753523002937435
1700006755683606300,4.694606201171875,0.23318678805138915,0.04192483253777027,-0.36905254463348536
1700006755693552400,4.704552490234375,0.3259738658854738,-1.0769488485217094,-0.6539929007977247
1700006755703497500,4.71449755859375,0.13394143745601175,-2.1565911739110946,-0.8768211207136511
1700006755713442600,4.724442626953125,-0.026605682852864264,-3.0568121671736237,-1.0295531833574176
1700006755723387400,4.734387451171875,-0.17915479014515875,-3.6987142326831814,-1.1949660100065171
1700006755733332500,4.74433251953125,-0.32729258380122483,-4.089313386681676,-1.3531544383600353
1700006755743277600,4.754277587890625,-0.32874738571941853,-4.308706663712859,-1.5275477131918072
1700006755753223400,4.764223388671875,-0.1103723458200693,-4.437008049455285,-1.7193819521680473
1700006755763168500,4.77416845703125,0.1497463248312473,-4.371300190269947,-1.844310792737454
1700006755773113600,4.784113525390625,0.32536351543478664,-4.055090214562416,-1.8910263666830955
1700006755783058400,4.794058349609375,0.4852063964644447,-3.5750235556066032,-1.7824483569338916
1700006755793003500,4.80400341796875,0.3455653225947171,-2.9933915421426294,-1.6548752854660151
1700006755802948400,4.8139482421875,-0.10468081964757293,-2.6316303600937125,-1.4300124909825622
1700006755812894500,4.82389453125,-0.5571797092527151,-2.7887872534424063,-1.1008841431215406
1700006755822839600,4.833839599609375,-0.9488350212406367,-2.9998242055386304,-0.6152171799406408
1700006755832784400,4.843784423828125,-0.9747913733392953,-3.234738292306661,-0.10526265638982876
1700006755842729500,4.8537294921875,-0.49791328129172324,-3.6260891414552927,0.2546429426539689
1700006755852674600,4.863674560546875,-0.25195467168437313,-3.825002525037527,0.48807263608314094
1700006755862620700,4.87362060546875,-0.3403460535764694,-3.8404549457132813,0.6035659781787545
1700006755872565500,4.8835654296875,-0.6603846476614474,-3.6886201241701837,0.7293873106084764
1700006755882510300,4.89351025390625,-1.0876046825706958,-3.292858472841978,0.8638526988733559
1700006755892455700,4.90345556640625,-1.6514584627598523,-2.7433623038291928,0.9319183732312172
1700006755902400500,4.913400390625,-2.041289554995298,-2.0543547882735727,0.7994630096144973
1700006755912345300,4.923345458984375,-2.216654889729619,-1.3039432482063769,0.7690782466143369
1700006755922291500,4.93329150390625,-2.452311903819442,-0.5829179616212844,0.9606870793368667
1700006755932236500,4.943236572265625,-2.6366613399982453,0.03353635889887809,1.2739245420396328
1700006755942181600,4.953181640625,-2.5127573124319316,0.4849988546609878,1.6785551440000532
1700006755952126500,4.96312646484375,-2.294132681685686,0.7146200957179069,2.0065954043634235
1700006755962071300,4.9730712890625,-2.094166574180126,0.7672171289175749,2.060609464754164
1700006755972017000,4.983016845703125,-2.0160633438020943,0.7092419098109006,1.8254133461743591
1700006755981962800,4.992962646484375,-2.005752377668023,0.5708095906764269,1.5283970234975217
1700006755991907800,5.002907958984375,-1.798018558770418,0.45477322774529455,1.3286525959186255
1700006756001852700,5.012852783203125,-1.4726643226206302,0.4159294100880623,1.0863696608830242
1700006756011797800,5.0227978515625,-1.231651918977499,0.46432080829143524,0.8161875691179186
1700006756021742800,5.032742919921875,-1.0576070191919802,0.5525988112032413,0.5357263676617294
1700006756031687700,5.042687744140625,-0.7910662065386772,0.689558135175705,0.31447416489087043
1700006756041633500,5.052633544921875,-0.5326841504216194,0.8791296899169683,0.16041282640472054
1700006756051579000,5.062578857421875,-0.278559167227149,1.0895224988907575,0.13175737141519783
1700006756061523700,5.072523681640625,-0.033871874463558195,1.391607503134012,0.15282953166887164
1700006756071468800,5.08246875,0.1935404583722353,1.614226171952486,0.10066811340749263
1700006756081413600,5.09241357421875,0.13792027795910836,1.8194564835965632,0.023472864719852805
1700006756091358700,5.102358642578125,0.04739069672822952,1.9975597188621759,0.07061214397028089
1700006756101304800,5.112304931640625,0.00224575136648491,2.2394646874308584,0.23807518114745616
1700006756111249700,5.122249755859375,-0.1914572223573923,2.533183429867029,0.36695758164823056
1700006756121194800,5.13219482421875,-0.36422435729205604,2.849944025194645,0.5909180204644799
1700006756131139800,5.142139892578125,-0.404476872703433,3.058020958441496,0.7256438132312149
1700006756141084700,5.152084716796875,-0.37185704412758347,3.1884166861146688,0.7895308867301791
1700006756151030800,5.16203076171875,-0.2856564320117235,3.2317011165678498,0.8324190113421529
1700006756160975600,5.1719755859375,-0.2412280922204256,3.1618367222249506,0.67792965670228
1700006756170920700,5.181920654296875,-0.3032709991574287,3.0773113498449325,0.5009286470575258
1700006756180865800,5.19186572265625,-0.3646709320157766,3.0628216367214915,0.3831080310581252
1700006756190810600,5.201810546875,-0.22846503849280997,3.02254047973752,0.2017327883845195
1700006756200755700,5.211755615234375,-0.20171967317461967,3.175239809155464,0.2119414631878957
1700006756210701800,5.221701904296875,-0.1174964986115694,3.346331119832396,0.28080975916553286
1700006756220646700,5.231646728515625,-0.030363574081659316,3.4022330397963523,0.2656643220797181
1700006756230591700,5.241591796875,-0.040294600987434384,3.319192353016138,0.2385286240033805
1700006756240536600,5.25153662109375,0.11293489891760981,2.993790186071396,0.09558763180542737
1700006756250481700,5.261481689453125,0.06693535515367985,2.7310855905801055,0.11258085218239575
1700006756260426800,5.2714267578125,0.10274314784957095,2.539022219023108,0.2441621363783255
1700006756270372600,5.28137255859375,0.2443301498889923,2.270799736893177,0.34297749805860217
1700006756280317700,5.291317626953125,0.37168928634524345,1.818183394920826,0.4027163658369332
1700006756290262800,5.3012626953125,0.47846682254374023,1.228585517144203,0.45055458713695407
1700006756300207600,5.31120751953125,0.5804933648228645,0.5829390044093131,0.5595771257832646
1700006756310152700,5.321152587890625,0.7086708319246768,-0.11904665066301821,0.675659958204627
1700006756320098600,5.3310986328125,0.5683078369885682,-0.854596137163043,0.7682077473901212
1700006756330044000,5.3410439453125,0.4109054444462061,-1.596868794438243,0.8447070497028529
1700006756339988700,5.35098876953125,0.22239888858795165,-2.300346733894944,0.8963857990138232
1700006756349933600,5.36093359375,0.05931786588728428,-3.028637043046951,0.838761658367142
1700006756359878700,5.370878662109375,-0.012264438289403915,-3.7419466406881807,0.7997327664665878
1700006756369823700,5.38082373046875,-0.14150631975233555,-4.405906808748841,0.8583641113944351
1700006756379769900,5.390769775390625,-0.10059738625884056,-5.025698164737224,0.996447470960766
1700006756389714700,5.400714599609375,0.23893851997852325,-5.564140440294146,1.021543406837806
1700006756399659500,5.410659423828125,0.7486053674280643,-5.924029983252287,0.911926993951574
1700006756409604900,5.42060498046875,0.8926970274984836,-5.904966970863938,0.6965292162973433
1700006756419549700,5.4305498046875,0.7057821247458458,-5.6232040391594165,0.40242742936033754
1700006756429494500,5.44049462890625,0.5145008434772491,-5.334889786115289,0.12942664517899974
1700006756439440600,5.450440673828125,0.12980364353153853,-4.998625448894501,0.15973032403327525
1700006756449385700,5.4603857421875,-0.4034147964298725,-4.483653480774164,0.34727621816582976
1700006756459330800,5.470330810546875,-0.9393126482009887,-3.900680574095249,0.47456404295153914
1700006756469275600,5.480275634765625,-1.4453390933215617,-3.3931074840545654,0.5053192466992884
1700006756479220700,5.490220703125,-1.7273264814317226,-2.733214419302344,0.6735987878911197
1700006756489165800,5.500165771484375,-1.74642865678668,-2.29511292489469,0.5527275886820628
1700006756499111700,5.510111572265625,-1.7597019798576832,-2.413196868005395,-0.12595829321499913
1700006756509056800,5.520056884765625,-2.158741045421362,-2.3481401662051677,-0.5482356110250577
1700006756519001600,5.530001708984375,-2.4039655138015745,-2.395734276551008,-1.0500951822571456
1700006756528946700,5.53994677734375,-2.5442086817502974,-2.2167431525349617,-1.2567523118339479
1700006756538891800,5.549891845703125,-2.8252479753553867,-1.4884095887631177,-1.120570255844295
1700006756548836600,5.559836669921875,-2.7540847733736036,-0.4461258109092712,-0.923722937946394
1700006756558782700,5.56978271484375,-2.601453248494863,0.5592950939714908,-0.881776697294414
1700006756568727800,5.579727783203125,-2.212338341704756,0.9634399582415819,-1.238801352340728
1700006756578672600,5.589672607421875,-1.8437937831260263,1.0301946961313486,-1.511827143099159
1700006756588617700,5.59961767578125,-1.7197288659095764,1.140475272014737,-1.43597066873461
1700006756598562800,5.609562744140625,-1.7256652702212332,1.3914829999715088,-1.051416493988782
1700006756608509000,5.619509033203125,-1.253189212524891,1.4908943913161754,-0.7817664632737636
1700006756618453800,5.629453857421875,-0.8729669295035302,1.3824837009578943,-0.7716985121153295
1700006756628398600,5.639398681640625,-0.7999183521665633,1.2253969502359627,-0.7408243581630289
1700006756638344000,5.649343994140625,-0.5525428432323038,1.1563871268957853,-0.6294844824850558
1700006756648288800,5.659288818359375,-0.43974648513570425,1.1779717667162417,-0.47688897876776754
1700006756658233600,5.669233642578125,-0.3901182386137545,1.269278177538514,-0.3262422344980761
1700006756668179700,5.6791796875,-0.23369082858338952,1.3673808243721723,-0.22399901726096869
1700006756678124500,5.68912451171875,-0.07397723648920655,1.3870903179705143,-0.17511983554065227
1700006756688070000,5.69906982421875,0.02604161922931671,1.2902566681593657,-0.2441323988271877
1700006756698014700,5.7090146484375,0.11918532848134636,1.1680126827597617,-0.3312600261274725
1700006756707959600,5.71895947265625,0.23335385171398518,1.1260422575145959,-0.29556782263526693
1700006756717905000,5.72890478515625,0.41100057538375256,1.1800427277714014,-0.19513496102206407
1700006756727850800,5.738850830078125,0.5351612080596387,1.2935276526540518,-0.06845041762543842
1700006756737795800,5.7487958984375,0.5382474836371839,1.4106161549866199,-0.13013015380585566
1700006756747740700,5.75874072265625,0.4794026420891285,1.6034499263942241,-0.1481711479363963
1700006756757685800,5.768685791015625,0.6325789413690567,1.8780618173003196,-0.09909470834461971
1700006756767630800,5.778630859375,0.9598279052242636,2.129401553690433,-0.03852591081447899
1700006756777575700,5.78857568359375,0.9178300074502825,2.673497324964404,-0.06441221161792055
1700006756787521800,5.798521728515625,0.6753006233729422,2.995382423698902,0.19443612857032566
1700006756797467000,5.808466796875,0.5660534821905195,3.155862323990464,0.4373441732343286
1700006756807411700,5.81841162109375,0.3306302768565714,3.737428871002793,0.5591723443746567
1700006756817356800,5.828356689453125,0.228344791380316,3.891290229937434,0.9535637302629649
1700006756827301600,5.838301513671875,0.15015169076174498,3.940392406758666,1.0989865658719091
1700006756837246700,5.848246826171875,-0.0816553699016571,4.043111022955179,1.0691275803115219
1700006756847192800,5.85819287109375,-0.12900062005296348,4.0996857276141645,1.0909556734990329
1700006756857137700,5.8681376953125,-0.1564145505487919,4.024261361056566,1.0742095597509294
1700006756867082800,5.878082763671875,-0.22640271740183232,3.8109412664592264,0.9195383457381278
1700006756877027800,5.88802783203125,-0.281892841694504,3.565620936489105,0.6647288143455982
1700006756886972700,5.89797265625,-0.4278796678617596,3.197134830099344,0.33133301829844714
1700006756896918800,5.907918701171875,-0.5132302390195429,2.6380367200046777,0.004641791073989589
1700006756906863600,5.917863525390625,-0.5690121858656406,2.064382261291146,-0.37857824214138086
1700006756916808700,5.92780859375,-0.53464112970829,1.506680573990941,-0.6890406141076236
1700006756926753800,5.93775390625,-0.28405425751209257,1.0593325278103352,-0.8328809297654777
1700006756936698600,5.94769873046875,-0.05368263647928834,0.6212585059314966,-0.9766101131990551
1700006756946643700,5.957643798828125,0.14326982229351998,0.18213000656366346,-1.2957840532787144
1700006756956589800,5.96758984375,0.22379954916611314,-0.1354027421802282,-1.6580870871193707
1700006756966534700,5.97753466796875,0.19277780343666673,-0.49746378395855423,-1.8550502134166658
1700006756976478500,5.987478515625,0.06876549319028855,-0.786452575263381,-1.815417437338829
1700006756986423800,5.997423828125,-0.11549933344498275,-1.0882195995986461,-1.4699331440910697
1700006756996368600,6.00736865234375,-0.1771054563999176,-1.539409123638272,-1.1466377401672303
1700006757006313500,6.0173134765625,0.1413465991459787,-2.1042893242657184,-1.096163325144723
1700006757016259600,6.027259521484375,0.595978372593969,-2.6256179679363965,-1.3615861666187643
1700006757026204700,6.03720458984375,0.811681270674616,-3.060857058650255,-1.6876460668198763
1700006757036149800,6.047149658203125,1.0118177663110195,-3.3864135393738746,-1.930698890249431
1700006757046094600,6.057094482421875,0.9976232367418706,-3.58379606012702,-2.0361272037960587
1700006757056039700,6.067039794921875,0.8109573403142392,-3.6082448572069405,-1.885146953255683
1700006757065984800,6.07698486328125,0.922280849379301,-3.477559206676483,-1.5518281679674981
1700006757075930600,6.0869306640625,1.2052971421457825,-3.556801085695624,-1.3245581662118433
1700006757085875700,6.096875732421875,1.211732728151232,-3.955447937071323,-1.3048555407457052
1700006757095820500,6.106820556640625,0.8774865988850593,-4.279986765184998,-1.022394543774426
1700006757105765600,6.116765625,0.3002560352504253,-4.353716018262506,-0.28471999141182747
1700006757115710700,6.126710693359375,-0.33100320182219145,-4.259639558205008,0.33995573908463117
1700006757125656600,6.136656494140625,-0.3501651445403695,-4.277684917983413,0.5441317559028044
1700006757135601700,6.1466015625,0.3104895522341132,-4.097931577423215,0.37623233660236
1700006757145546800,6.156546630859375,0.5610650262534618,-3.5310780308961864,0.17469729927964509
1700006757155491600,6.16649169921875,0.07130933245420455,-3.0007413203835487,0.287876738409698
1700006757165436700,6.176436767578125,-0.23615049669519064,-2.550354929420352,0.39713947902005164
1700006757175381800,6.1863818359375,-0.44578108912482856,-1.8929338077396154,0.5767553838709369
1700006757185327600,6.19632763671875,-0.860336726641655,-1.0709382099300622,0.9112956372454762
1700006757195272700,6.206272705078125,-1.3016633205756545,-0.2817196770846844,1.2213672563284634
1700006757205217500,6.216217529296875,-1.4929811344623565,0.33338205978274343,1.4267968899369239
1700006757215163000,6.226162841796875,-1.5202411895707248,0.7890525286287069,1.570610463718325
1700006757225107700,6.236107666015625,-1.6754479717649517,0.9776835876494645,1.6533897230833767
1700006757235052500,6.246052490234375,-1.6978855751529336,1.0156190582901239,1.6746126899845897
1700006757244998700,6.25599853515625,-1.550649041185528,1.0189221914887427,1.6672968140132725
1700006757254943500,6.265943603515625,-1.480574072831869,0.8997913696736097,1.685203642103821
1700006757264888600,6.275888671875,-1.5829693022929132,0.5572030901283025,1.589823113710433
1700006757274833700,6.285833740234375,-1.3853998806655405,0.21393734971284864,1.3626362601935862
1700006757284778500,6.295778564453125,-0.9827800340056418,-0.025574001717567442,1.0970929341450333
1700006757294723800,6.305723876953125,-0.999917339028418,-0.2550263159483671,0.7950356946915388
1700006757304669700,6.315669677734375,-1.036207526680082,-0.31430151173770426,0.5581056649912148
1700006757314614500,6.325614501953125,-0.8999472908876835,-0.14320026418864726,0.4104973751019686
1700006757324559600,6.3355595703125,-0.7824282881833613,0.11413842035531997,0.27655860452707853
1700006757334504700,6.345504638671875,-0.5720120983339846,0.34205987175703045,0.11542140937056392
1700006757344449800,6.35544970703125,-0.42592926444634793,0.616126988261938,0.011069273688085376
1700006757354394600,6.36539453125,-0.2720714126430452,0.8995154753416776,-0.010885039694979786
1700006757364340500,6.375340576171875,-0.012213000363111496,1.1467115360558033,0.028335758048482238
1700006757374285800,6.385285888671875,0.11637713919281958,1.4039444221377373,0.0931757848907262
1700006757384230700,6.395230712890625,0.24944720064178108,1.624481608507037,0.15089699270371346
1700006757394175500,6.405175537109375,0.3624035716056824,1.820683979564905,0.22637966531980783
1700006757404120600,6.41512060546875,0.37245501002073284,2.0728817940890787,0.38808304299172014
1700006757414065700,6.425065673828125,0.3018994185432792,2.322770162627101,0.5602308404516428
1700006757424011800,6.43501171875,0.1234777649782598,2.52855693911016,0.6880526990488172
1700006757433956600,6.44495654296875,-0.09801131528839468,2.7353023314923046,0.7861664517983794
1700006757443901400,6.4549013671875,-0.2431656361542642,2.9199942974984645,0.8054903070800006
1700006757453846800,6.4648466796875,-0.4409598064482212,3.0814719766557217,0.6508145630225539
1700006757463791600,6.47479150390625,-0.5527544401563703,3.2112206385970112,0.5021329813459888
1700006757473737700,6.48473779296875,-0.4762929856359958,3.358696680408716,0.3874506999049335
1700006757483682600,6.4946826171875,-0.39522096858024597,3.455419855582714,0.25847232821639626
1700006757493627600,6.504627685546875,-0.39704833013787866,3.486101409572363,0.16082809267472475
1700006757503572700,6.51457275390625,-0.5172504344463348,3.482378589656949,0.1270307812847197
1700006757513517600,6.524517578125,-0.5678397810854018,3.3718530991017817,0.08611786573585123
1700006757523462700,6.534462646484375,-0.4821019641757011,3.1709418197005985,0.013986074450239538
1700006757533408800,6.54440869140625,-0.332487741291523,2.9078321505397557,-0.03514521886762231
1700006757543353600,6.554353515625,-0.2192952234841883,2.6120553065299985,-0.07388342072591185
1700006757553298700,6.564298583984375,-0.12492153404578565,2.291727374109626,-0.11541220315080135
1700006757563243500,6.574243408203125,-0.02252981171607971,1.932162825322151,-0.09116862805308773
1700006757573188600,6.584188720703125,0.06910195860303937,1.5261433993518352,0.08085618234798311
1700006757583133700,6.5941337890625,0.2018082282409072,1.0713555585592984,0.38571770209986717
1700006757593079600,6.60407958984375,0.33192440832033754,0.5529582921653986,0.6187519299380481
1700006757603024600,6.614024658203125,0.46185295687317846,-0.1562783569484949,0.6020504590492696
1700006757612969700,6.6239697265625,0.7347663732983172,-0.9183592920213938,0.5195553138552234
1700006757622914600,6.63391455078125,1.055426606412977,-1.6668372336775064,0.5292416087523103
1700006757632859600,6.643859619140625,1.0936522191066294,-2.3580939894646407,0.4241005146492272
1700006757642804700,6.6538046875,1.0813584085922687,-2.8793022216260433,0.1424842248737812
1700006757652750800,6.663750732421875,0.8555809834819287,-3.2170565051436424,-0.11208431910341606
1700006757662695700,6.67369580078125,0.5202817649662494,-3.472598369398713,-0.21507334973914546
1700006757672640500,6.683640625,0.765735219796747,-3.4169518855005503,-0.08953059678878635
1700006757682585600,6.693585693359375,1.1114216845531015,-3.3338673595786092,-0.07338698811163194
1700006757692530700,6.70353076171875,0.7686427778065205,-3.2904198475182054,-0.051992345304787156
1700006757702475500,6.7134755859375,0.47726438795141873,-3.2260195638000964,0.09746906163785606
1700006757712421600,6.723421630859375,0.6285036547541618,-2.9661323638170956,0.22065538765517995
1700006757722366500,6.733366455078125,0.6620224779963493,-2.6147335858285428,0.3122972227105871
1700006757732311800,6.743311767578125,0.4653541699271649,-2.5596412286818024,0.22080840452611444
1700006757742256600,6.753256591796875,0.08901092029623686,-2.728902985844016,0.15032174096587114
1700006757752201500,6.763201416015625,0.002465586395934224,-2.9841946747303005,0.22103446836695073
1700006757762146800,6.773146728515625,0.16299495185241103,-3.0975591881036757,0.4049074096078053
1700006757772092700,6.7830927734375,0.1640999904848635,-3.0585172175258397,0.4494979542234912
1700006757782037800,6.793037841796875,-0.18652678021788596,-2.8773639470398424,0.33559615563564
1700006757791982600,6.802982666015625,-0.5771405472636223,-2.818231374591589,0.06686908498443662
1700006757801927700,6.812927734375,-0.7816554041147231,-2.7460709782660007,-0.16799707098864017
1700006757811872800,6.822872802734375,-0.9711689450584351,-2.4745336724996565,-0.3118946697916835
1700006757821818600,6.832818603515625,-1.173246345629543,-2.0519179165154693,-0.429276821308583
1700006757831763700,6.842763671875,-1.4302021683357655,-1.5901766033232212,-0.54953463785965
1700006757841708500,6.85270849609375,-1.6373194627702234,-1.1072329276263713,-0.6924013957776128
1700006757851653600,6.862653564453125,-1.7739641678355633,-0.5612438899517059,-0.7897262631718068
1700006757861598700,6.8725986328125,-1.8780815449140964,-0.07952712570130825,-0.9213271288510412
1700006757871543600,6.88254345703125,-1.8579903585217892,0.3046212447226047,-1.0272969288632272
1700006757881489700,6.89248974609375,-1.7035890474915503,0.5593506235510111,-1.210376272040978
1700006757891434800,6.902434814453125,-1.6193125353060662,0.7801204496324062,-1.2871703925818203
1700006757901379600,6.912379638671875,-1.5902106517232955,1.00743867444396,-1.2490082735784351
1700006757911324700,6.92232470703125,-1.8163855517186223,1.0925374627977609,-1.1777280210882424
1700006757921269800,6.932269775390625,-1.8645885877430437,1.028092170894146,-1.0346135354869066
1700006757931214600,6.942214599609375,-1.7607786691784857,0.8789350441277026,-0.8792977399602532
1700006757941160700,6.95216064453125,-1.6437841287396848,0.6872592105835675,-0.7584755309920758
1700006757951105500,6.96210546875,-1.4739046780705451,0.5753969184666872,-0.6404000634487718
1700006757961050600,6.972050537109375,-1.3042460305452346,0.48047933140993115,-0.5630423542084172
1700006757970995700,6.98199560546875,-1.1871290327705442,0.43317514392137524,-0.5323598503706977
1700006757980941800,6.99194189453125,-1.0916928286671639,0.4684165531724691,-0.599249284023419
1700006757990886700,7.00188671875,-0.9901777430415153,0.5020271463513374,-0.7801364509191363
1700006758000832800,7.011832763671875,-0.8520002754509448,0.5152841028094292,-1.0312151252202688
1700006758010777600,7.021777587890625,-0.6245967104434966,0.5640075094461441,-1.2683907271794974
1700006758020722700,7.03172265625,-0.32338191316351295,0.6337111602693796,-1.4099331411585212
1700006758030667800,7.041667724609375,-0.024154928699880836,0.7270376787424087,-1.4289037990882991
1700006758040612600,7.051612548828125,0.21915113883838055,0.8685416604071855,-1.3968262606956063
1700006758050557700,7.0615576171875,0.38821021303534503,1.1154968981027602,-1.3007175641581414
1700006758060503800,7.07150390625,0.4343057553865015,1.413758544665575,-1.1555858935154975
1700006758070448600,7.08144873046875,0.4186487520493567,1.7485720985561608,-0.9723338241193443
1700006758080393700,7.091393798828125,0.35912674189209937,2.028027922362089,-0.7535560486380011
1700006758090338800,7.1013388671875,0.19517536609768865,2.3542244545549154,-0.5807334937216714
1700006758100283600,7.11128369140625,0.0700830055296421,2.526789929437637,-0.2399936002557166
1700006758110228700,7.121228759765625,-0.18900500689968466,2.951847233355045,-0.05379760462846607
1700006758120174600,7.131174560546875,-0.36930209894776345,3.2164071013242004,0.21006222531255334
1700006758130119700,7.14111962890625,-0.4089266917191446,3.3771821851700543,0.2726166071693413
1700006758140064800,7.151064697265625,-0.2910896360415965,3.4497657753437756,0.19264466030998154
1700006758150009600,7.161009521484375,-0.14852577006034554,3.3742946470350024,0.14484823232507332
1700006758159954700,7.17095458984375,-0.060990256078913806,3.2060710007488726,0.11168095333375967
1700006758169900500,7.180900634765625,-0.11404380087442695,3.0691625301808116,-0.02685130077754147
1700006758179846000,7.190845947265625,-0.15608378422446548,2.7767338275551796,-0.13060841144262814
1700006758189790700,7.200790771484375,-0.37442842898555095,2.3830980823397634,-0.23435815165201201
1700006758199735600,7.210735595703125,-0.5344342820245772,1.9506138432919977,-0.20933429463049397
1700006758209681000,7.220680908203125,-0.23407405574731527,1.6181114889532326,-0.07674397952249273
1700006758219625700,7.230625732421875,0.17571202928014099,1.182428746125102,-0.21048476157356052
1700006758229571800,7.24057177734375,0.11415712505578994,0.6209452021986246,-0.6163724874556065
1700006758239516700,7.2505166015625,0.01812134762406349,0.010818915656208992,-0.856657234411314
1700006758249461800,7.260461669921875,0.11398056291248648,-0.40572307337224484,-0.9211650701571256
1700006758259406800,7.27040673828125,0.08885200340747833,-0.7179103694349527,-0.8807342755693942
1700006758269351700,7.2803515625,-0.018760814571380614,-0.9534411267966032,-0.7407528272967785
1700006758279296500,7.290296630859375,-0.06175820824410766,-1.160453061160445,-0.703768958292529
1700006758289242600,7.30024267578125,0.04560322878956794,-1.4118933353155851,-0.7661773375410587
1700006758299187700,7.310187744140625,0.1874351272344589,-1.6928800219506024,-0.9489973721954971
1700006758309132800,7.3201328125,0.31817630734443664,-1.865572922605276,-1.0795184067487715
1700006758319077600,7.33007763671875,0.31695469312760977,-1.8556272826522588,-1.1061484933905303
1700006758329022700,7.340022705078125,0.2930429985990748,-1.8614894526839256,-1.11580735229142
1700006758338967800,7.3499677734375,0.3174795572519302,-1.8939573055684564,-1.1731802215907723
1700006758348913700,7.35991357421875,0.44345341336224225,-1.9376251823812722,-1.1538479638069867
1700006758358858800,7.369858642578125,0.5942331363618374,-1.973207952415943,-1.0610651968218385
1700006758368803800,7.379803955078125,0.7492927651703357,-2.050870453289151,-1.0531744435720145
1700006758378748700,7.389748779296875,0.8809481375157833,-2.2779081075936554,-1.1802093895751982
1700006758388693800,7.39969384765625,0.8983483312584459,-2.678956174892187,-1.2652505294576286
1700006758398638800,7.409638916015625,0.8902221618175507,-3.095845954445004,-1.0953494514785707
1700006758408585000,7.4195849609375,0.6867395706236362,-3.447268113309145,-0.8050089533038437
1700006758418529800,7.42952978515625,0.32211013966202734,-3.9193987185686825,-0.546053700408712
1700006758428474600,7.439474609375,0.12155834122300148,-4.329099463400245,-0.33965989794321355
1700006758438419700,7.449419677734375,0.21113047559857367,-4.420636175847053,-0.25288150420570743
1700006758448364800,7.45936474609375,-0.19554719508476553,-4.169526156559586,-0.25762663463987406
1700006758458309600,7.4693095703125,-1.02311679363437,-3.6942303652673956,-0.19772735213544218
1700006758468255700,7.479255859375,-1.436671802741289,-3.075409315615892,0.0594517214000225
1700006758478200600,7.48920068359375,-1.7726257588386534,-2.422147067180276,0.3280378492105752
1700006758488146000,7.49914599609375,-2.267655009126663,-1.85924313506186,0.5868907742423937
1700006758498090800,7.5090908203125,-2.551516374415159,-1.2475684500336646,0.9192606247752905
1700006758508035600,7.51903564453125,-2.427114918720722,-0.653220162859559,1.1653349149178713
1700006758517981000,7.52898095703125,-2.2919734578251836,-0.248664964222908,1.285911478561908
1700006758527926800,7.5389267578125,-2.1778455588638783,0.0392091438382864,1.4190562126822768
1700006758537872000,7.548871826171875,-2.1711364166140554,0.2583703656792641,1.5392027874112129
1700006758547816700,7.558816650390625,-2.2761329146146774,0.35474048963189125,1.5814527602501212
1700006758557761800,7.56876171875,-2.2114695960462094,0.3374725439667702,1.4417133040398358
1700006758567707000,7.578706787109375,-1.7621464504003523,0.20345044248998165,1.1501787737749516
1700006758577652700,7.58865283203125,-1.3371931913793087,-0.018273323315382003,0.8698360110666602
1700006758587597600,7.59859765625,-1.2113409523546694,-0.1337882927209139,0.6913315015237778
1700006758597542700,7.608542724609375,-1.1330162612456827,-0.06792495071291924,0.6520495116449893
1700006758607487700,7.61848779296875,-1.1019606863118707,0.06156535255312919,0.6847242852784693
1700006758617432800,7.628432861328125,-1.037839511796087,0.19573299998044966,0.661444312782213
1700006758627377700,7.638377685546875,-0.8869954548560083,0.31412323256134983,0.6360341233242303
1700006758637323500,7.648323486328125,-0.7505493411026894,0.4631114325016737,0.6428360584240407
1700006758647268900,7.658268798828125,-0.5984370908576995,0.6671674396693706,0.5647494138546287
1700006758657213700,7.668213623046875,-0.39817046603560446,0.8990613018333912,0.45738925546258685
1700006758667158800,7.67815869140625,-0.27173253607749936,1.1082359671890736,0.36033714059516786
1700006758677103900,7.688103759765625,-0.1737023699581623,1.2484861494004726,0.29769108013324436
1700006758687048700,7.698048583984375,0.05161671692542731,1.355314539003372,0.2158746013857424
1700006758696994800,7.707994873046875,0.18200827988013624,1.5130390031069516,0.11843407172262668
1700006758706939600,7.717939697265625,0.2452981181383133,1.6900924370586872,0.07950096834674478
1700006758716884700,7.727884765625,0.30025113987959917,1.9208026423960922,0.2071658828165382
1700006758726829800,7.737829833984375,-0.0465163250464946,2.176159797734022,0.4768375408414751
1700006758736774700,7.747774658203125,-0.13732771889343856,2.4142606978446244,0.7657717524148523
1700006758746719700,7.7577197265625,-0.030883944693952798,2.5838719990968704,0.879090746146068
1700006758756665600,7.76766552734375,-0.21496362402066588,2.7760060978025196,0.8765352164443582
1700006758766610700,7.777610595703125,-0.4839057987272739,2.9694916111171246,0.7995974496491253
1700006758776555800,7.7875556640625,-0.5410722587343305,3.111805155599117,0.7452316532112657
1700006758786500600,7.79750048828125,-0.680648852533102,3.311007292994857,0.6799821322526782
1700006758796445700,7.80744580078125,-0.6118646546423435,3.3441052604764696,0.7103009904097766
1700006758806390800,7.817390869140625,-0.07630451039299369,3.2449118957966565,0.6357824866507202
1700006758816336600,7.827336669921875,0.1862333502292633,3.119739455729723,0.43380321269184346
1700006758826281700,7.83728173828125,-0.02579392807856202,3.021162177121639,0.20837328584492204
1700006758836226800,7.847226806640625,-0.1823578239701688,2.86000540048182,0.055903965790569776
1700006758846171600,7.857171630859375,-0.05505962392091751,2.6232062306195494,-0.007807166619598865
1700006758856116700,7.86711669921875,0.03498137007541954,2.3945266543269157,0.03543550705108792
1700006758866061600,7.8770615234375,-0.03190904995799065,2.0476544138520953,0.014157193233445286
1700006758876007700,7.887007568359375,-0.0798211402118206,1.6724971591353415,0.10961359987463802
1700006758885952800,7.896952880859375,-0.058389060604572295,1.2297370252668858,0.2841504478955641
1700006758895897600,7.906897705078125,0.12996376599669457,0.8100199133336543,0.4633945237593725
1700006758905842700,7.9168427734375,0.1813700550418347,0.45432840658724305,0.6073764763776213
1700006758915787800,7.926787841796875,-0.048945598020032045,0.22178397156000135,0.7234647886916995
1700006758925732600,7.936732666015625,-0.24494959696158766,-0.0021837737798690794,0.7116391802109777
1700006758935678700,7.9466787109375,-0.18398169884495436,-0.3932107978016138,0.5252197328250855
1700006758945623600,7.95662353515625,0.14662373583130536,-0.7351993578881025,0.3808552836952731
1700006758955569000,7.96656884765625,0.266869313955307,-1.076457265612483,0.32682372418045996
1700006758965513700,7.976513671875,0.3506242134194821,-1.4877555087685583,0.3896329393148422
1700006758975458600,7.98645849609375,0.4374971718389541,-1.912166331475973,0.5472149262078106
1700006758985403600,7.996403564453125,0.34385201587080955,-2.455905544397235,0.6867834097653627
1700006758995349800,8.006349853515625,0.4771815319735557,-3.071191405659914,0.7791473668165505
1700006759005294600,8.016294677734376,0.6108908411741256,-3.599157879909873,0.7291535018526017
1700006759015239700,8.02623974609375,0.44059491865858436,-4.058426080986857,0.6475000316470861
1700006759025184500,8.0361845703125,0.13945282128863035,-4.331833856800198,0.6354984820775688
1700006759035129600,8.046129638671875,0.10503047333545983,-4.349635470950603,0.509561816172488
1700006759045074700,8.05607470703125,0.4704782349426299,-4.266375588461757,0.18752939965547993
1700006759055020500,8.0660205078125,0.3050281450230628,-4.116685962253809,-0.16033530418910086
1700006759064965400,8.07596533203125,-0.20676643517017362,-3.8728538250148294,-0.35293088292665775
1700006759074910700,8.08591064453125,-0.5082159179888666,-3.8021301834940906,-0.29577826878186314
1700006759084855600,8.09585546875,-0.4502734321080148,-3.7354648774534462,-0.19084986758138983
1700006759094800600,8.105800537109374,-0.382019030245021,-3.548668632644415,-0.19270837319595738
1700006759104745700,8.115745849609375,-0.4371171595454216,-3.083362904968858,-0.07453294784293975
1700006759114691600,8.125691650390625,-0.537484390310198,-2.435043373632431,-0.003221026139426976
1700006759124636700,8.13563671875,-0.6199089910186827,-1.8207208044439553,-0.18427770438315347
1700006759134581500,8.14558154296875,-0.5981940028168261,-1.503178118827939,-0.6490190579079091
1700006759144526600,8.155526611328124,-0.6291409297443926,-1.6046055261701344,-1.2826853561222553
1700006759154471700,8.1654716796875,-0.8941327593900262,-1.3682920939981937,-1.41955846311599
1700006759164416500,8.17541650390625,-1.1395840222634375,-0.5396995821416378,-1.004008992256224
1700006759174362600,8.185362548828126,-0.943222076729685,0.23902444469630718,-0.8018170253947376
1700006759184307500,8.195307373046875,-0.8327414482295513,0.7904173872411251,-0.8417159781280904
1700006759194252500,8.20525244140625,-0.7645185374833643,1.1111135684520006,-1.1079917831696569
1700006759204197600,8.21519775390625,-0.7114496489882469,1.2090905430793761,-1.4281921436876057
1700006759214142500,8.225142578125,-0.7471699277974665,1.163046000263095,-1.6104218112334607
1700006759224087800,8.235087890625,-0.8650411049403249,1.183338846707344,-1.4996522827893495
1700006759234033700,8.24503369140625,-0.8675706234179437,1.1392226416051388,-1.352676737845689
1700006759243978500,8.254978515625,-0.6701042237736284,1.0598673653393984,-1.229311201070249
1700006759253923600,8.264923583984375,-0.9522900570653379,0.9703910925537347,-1.0731199378833174
1700006759263868700,8.27486865234375,-1.1015082663692533,0.8483452600747347,-0.8331351237222552
1700006759273813500,8.2848134765625,-0.5387925502993166,0.8877285914361477,-0.6058919734409078
1700006759283758600,8.294758544921875,-0.33590617143288254,0.903145940798521,-0.5216141460811718
1700006759293704400,8.304704345703126,-0.17393150253891945,0.8390952011704444,-0.5857823746090755
1700006759303649500,8.3146494140625,0.10946341428160666,0.7723352025836706,-0.7075780682519078
1700006759313594600,8.3245947265625,0.08294511745125055,0.7219424014300108,-0.8006050923217087
1700006759323539500,8.33453955078125,-0.2690552796922624,0.6671978348076343,-0.9094884416930377
1700006759333484500,8.344484619140625,-0.4779378302335739,0.6039630877375602,-0.9001743776418268
1700006759343430400,8.354430419921876,-0.43446927538514135,0.5845026004642248,-0.8193277668397874
1700006759353375700,8.364375732421875,-0.20370222529396415,0.7429571324080229,-0.7461741947583854
1700006759363320600,8.374320556640624,0.22894100370779633,0.9465449375420808,-0.7272040482852608
1700006759373265400,8.384265380859375,-0.08565013862624764,1.193723462599516,-0.6453427805479616
1700006759383210800,8.394210693359375,-0.4253951575696468,1.4851964719355106,-0.5429825493350625
1700006759393155600,8.404155517578126,-0.4112603953637182,1.7164473600208758,-0.4234739437161013
1700006759403101700,8.414101806640625,-0.31119945406913757,1.8534411707848308,-0.39227760860472916
1700006759413046500,8.424046630859374,-0.2084662248253822,2.004957427898049,-0.43589985617753113
1700006759422991600,8.43399169921875,-0.24094328392967582,2.221441539484262,-0.4867714538240805
1700006759432936700,8.443936767578125,-0.3414027230225503,2.4164690215438602,-0.4213031755482778
1700006759442881500,8.453881591796875,-0.2866178243897855,2.6022955445379017,-0.3349999798407778
1700006759452826600,8.46382666015625,-0.2878641711890697,2.7409815461724993,-0.2604955594060011
1700006759462772500,8.4737724609375,-0.48574368167892096,2.8501164591521024,-0.13793151173917576
1700006759472717600,8.483717529296875,-0.5756618530131876,2.8601088608562946,-0.02731711905784905
1700006759482662700,8.49366259765625,-0.687151220164448,2.7785540287196633,-0.005181494291126728
1700006759492607500,8.503607421875,-0.5909715042173862,2.664454186809063,-0.06032543549463153
1700006759502552600,8.513552490234375,-0.32492651225700975,2.540507489144802,-0.0905709544208832
1700006759512497700,8.52349755859375,-0.16056348692178726,2.3245728281348943,-0.12684062900748103
1700006759522443500,8.533443603515625,0.03171951873525977,2.135318084257841,-0.16572760995300487
1700006759532388600,8.543388671875,0.14668912921771407,1.923826374131441,-0.14284854640783742
1700006759542333700,8.553333740234375,0.11734408452883362,1.6882207979679107,-0.1408593636183068
1700006759552278500,8.563278564453125,0.2280124906860292,1.4262445167511701,-0.2089779737398028
1700006759562223600,8.5732236328125,0.3430031439565122,1.0965502055704592,-0.33899058384690434
1700006759572168700,8.583168701171875,0.24511107113361358,0.7490969503372907,-0.43750382077544925
1700006759582114800,8.59311474609375,0.3553637360967696,0.5285960043251514,-0.45473212854992595
1700006759592059600,8.6030595703125,0.43797494541853665,0.34468788217306134,-0.33785401756502687
1700006759602004500,8.61300439453125,0.4270037618100643,0.15940847166776656,-0.2543843282504007
1700006759611949600,8.622949462890626,0.4267420421339571,-0.046482934233546255,-0.2316140588419512
1700006759621894700,8.632894775390625,0.3859820155918598,-0.175053200045228,-0.10154807457979768
1700006759631839500,8.642839599609376,0.691838939589262,-0.1775806726962328,0.03857877351287752
1700006759641785600,8.65278564453125,0.7810755584001541,-0.12558920417428016,0.10168072451613842
1700006759651730400,8.66273046875,0.5756663830578327,-0.014838088169693946,0.11953509176708757
1700006759661675800,8.67267578125,0.3698538145463913,0.07087912434339523,0.19463519480638206
1700006759671620600,8.68262060546875,0.3740788118302822,0.08410860827267169,0.23777057217769323
1700006759681565400,8.6925654296875,0.6326398777760565,0.15114859284460544,0.21695169256534427
1700006759691510800,8.7025107421875,0.7561796020746231,0.24347850149571895,0.15023250091299414
1700006759701456600,8.71245654296875,0.7727272706411779,0.25736849516034127,0.12186448456272482
1700006759711401700,8.722401611328126,0.5924526096206159,0.28150223494172094,0.22366799520831554
1700006759721346600,8.7323466796875,0.5265910942435265,0.3421276762962341,0.2997153525024652
1700006759731291600,8.742291748046876,0.4565313965242356,0.43031390927135943,0.37510128674581644
1700006759741236700,8.75223681640625,0.49106728785447773,0.5131605347841978,0.41795861436072734
1700006759751181600,8.762181640625,0.6168211810711771,0.6230401286512612,0.41718784918393936
1700006759761127700,8.772127685546875,0.4778456219054758,0.6144646080076694,0.4463056975208223
1700006759771072500,8.782072509765625,0.41833311022892594,0.31106442951262,0.4666848340090364
1700006759781017600,8.792017578125,0.3606980828620493,-0.07904898679554462,0.40928756092078983
1700006759790962700,8.801962646484375,0.1624189055301249,-0.4592757998615503,0.32172556079123166
1700006759800907500,8.811907470703124,0.28107451104894277,-0.7647796726375817,0.266303715961799
1700006759810852600,8.8218525390625,0.3751928374867886,-1.0295043757796287,0.030326420409046113
1700006759820798700,8.831798828125,0.06134557232260704,-1.1135042629808187,-0.19068514200635253
1700006759830743600,8.84174365234375,0.049199353585392236,-1.1543220110595225,-0.29369455784298476
1700006759840688600,8.851688720703125,0.1728314323425293,-1.3521657195836305,-0.28554803973380477
1700006759850633700,8.8616337890625,0.08336684999465942,-1.4540356099963188,-0.08733863970246165
1700006759860578600,8.87157861328125,-0.1526234877027571,-1.441373696821928,0.031256029409356414
1700006759870523600,8.881523681640624,-0.2387302840553224,-1.5947078170120714,-0.043856494720093904
1700006759880469500,8.891469482421876,-0.006588584610074758,-1.8467630081951618,-0.138917253107205
1700006759890414600,8.90141455078125,0.24458514756336808,-2.280747714933753,-0.1933697779804468
1700006759900359700,8.911359619140624,0.6332699923731386,-2.8627696044981477,-0.25344445358440276
1700006759910304500,8.921304443359375,1.006822734502703,-3.5573090352177617,-0.29365930386651307
1700006759920249600,8.93124951171875,1.200337839237973,-4.3297886147081845,-0.34529640599284317
1700006759930194700,8.941194580078125,1.1142541315000503,-4.8337516975581645,-0.2919259772678837
1700006759940140500,8.951140625,0.8850384025041014,-5.0592853770405055,-0.20505309191364793
1700006759950085600,8.961085693359376,0.687155750209093,-5.066449861842393,-0.2395701689455658
1700006759960030500,8.971030517578125,0.3735549340866506,-4.754037524852157,-0.46074835663214325
1700006759969975800,8.980975830078124,0.10720365265607833,-4.177245352634787,-0.7939519911080598
1700006759979920600,8.990920654296875,-0.14402034839987754,-3.4251983203202485,-1.1061593801107257
1700006759989865500,9.000865478515625,-0.6907927915371954,-2.554230309548974,-1.3039451479025184
1700006759999811300,9.010811279296876,-1.108777088328451,-1.7590367939472198,-1.3669294273428618
1700006760009756700,9.020756591796875,-1.73131745076403,-1.0086182396173478,-1.3704394812904297
1700006760019701500,9.030701416015624,-2.3183657901883126,-0.4442091636329889,-1.3341963476508856
1700006760029646300,9.040646240234375,-2.522313660806417,-0.2569529000967741,-1.2383921870179473
1700006760039591400,9.05059130859375,-2.5806653120100496,-0.3476689438104629,-1.2506564791768788
1700006760049536500,9.06053662109375,-2.3185152816616,-0.6066238313794136,-1.346643595161289
1700006760059482600,9.070482666015625,-1.9938016815029083,-0.7701753942012787,-1.367064305768907
1700006760069427500,9.080427490234374,-1.6722526828549802,-0.6450099683970213,-1.3555623762845992
1700006760079372300,9.090372314453125,-1.2056990009449422,-0.3601321195423603,-1.4296202767945825
1700006760089317600,9.100317626953125,-1.0453998640477657,-0.17370587708950042,-1.470933553305268
1700006760099262500,9.110262451171875,-0.7701506981514393,-0.05519406395554542,-1.3940261085830628
1700006760109207600,9.12020751953125,-0.4241160775445401,0.03056640317738056,-1.2227947318483143
1700006760119153400,9.1301533203125,-0.3106030956111848,0.14701017786562443,-0.9360357454221695
1700006760129098500,9.140098388671875,-0.34112332155928016,0.28695348608493804,-0.6386749201565981
1700006760139043600,9.150043701171874,-0.3305202406108379,0.4142506632208824,-0.3457806093132123
1700006760148988400,9.159988525390625,-0.2656115689791739,0.5213964482098817,-0.12056490973886101
1700006760158933500,9.16993359375,-0.1714415123540908,0.6024404082149267,-0.030116832778975366
1700006760168878600,9.179878662109376,-0.10629165237769483,0.6569733779132366,0.009010258799046277
1700006760178824400,9.189824462890625,-0.12802899854183197,0.685031597661972,0.01855981210656464
1700006760188769500,9.19976953125,-0.19151625906825065,0.6735942578464746,0.004221453619934618
1700006760198714400,9.20971435546875,-0.19588263758420943,0.7920727532327174,0.058658634793572126
1700006760208659500,9.219659423828125,-0.19252865098118782,0.8832961619466543,-0.017914536472968756
1700006760218604500,9.2296044921875,-0.24205402165055273,0.7614104884654284,-0.3583080824529752
1700006760228550400,9.23955029296875,-0.382359368115291,1.0010235467046498,-0.31994693374615163
1700006760238495500,9.24949560546875,-0.3097475747603923,1.2981067971378564,-0.39322208638060835
1700006760248440600,9.259440673828125,-0.4302187052685767,1.6064607986479997,-0.5282432453647256
1700006760258385400,9.269385498046875,-0.45906844072118397,1.9431839855521915,-0.41014735608790065
1700006760268330500,9.27933056640625,-0.36989480414390563,2.1101748751729725,-0.3744366122920066
1700006760278275600,9.289275634765625,-0.36385903111100193,2.250721994504332,-0.19486958808414637
1700006760288220400,9.299220458984376,-0.21171507055349648,2.2870406775981187,-0.05446154842991382
1700006760298166500,9.30916650390625,-0.11532967596650123,2.1170622965991495,-0.06961016385350376
1700006760308111400,9.319111328125,0.020070143604278563,1.8729887518197297,-0.039240123498439784
1700006760318056700,9.329056640625,0.049853798906132576,1.7102724707782269,-0.0796895497214049
1700006760328001500,9.33900146484375,-0.10845087623819709,1.6073258910447359,-0.1475839226329699
1700006760337946400,9.3489462890625,0.08024901023507118,1.5742600722670554,-0.1389150976827368
1700006760347891500,9.358891357421875,0.30856910556554795,1.6189619683027265,-0.08172799674645066
1700006760357837300,9.36883740234375,0.19816585315056143,1.6070920822888612,-0.14924308801684527
1700006760367782700,9.37878271484375,0.1683271797258407,1.5536778874874113,-0.2635589107656851
1700006760377727500,9.3887275390625,0.19460012349300085,1.528314898172021,-0.3535840130731463
1700006760387672300,9.39867236328125,-0.020100611807778477,1.548974824362993,-0.3159066088467836
1700006760397617700,9.40861767578125,-0.2215256859499961,1.5586124212801455,-0.21801493788268417
1700006760407562500,9.4185625,-0.2400129442770034,1.5345628526508808,-0.11117620954886079
1700006760417508600,9.428508544921876,-0.2548527129471302,1.4593191033571957,-0.017456746235489845
1700006760427453400,9.438453369140625,-0.30539047552943227,1.396182555964589,0.07901077367700636
1700006760437398500,9.4483984375,-0.3047194444000721,1.3617758439719676,0.21354707175362853
1700006760447343600,9.458343505859375,-0.15477197097353637,1.3722954844206572,0.22521727047692983
1700006760457288400,9.468288330078124,0.1368857472795993,1.418143043360114,0.173482881988585
1700006760467233500,9.478233642578125,0.3773053726613521,1.4466209498256444,0.14794862775951623
1700006760477179600,9.4881796875,0.4490858297586441,1.4108669148772954,0.17597645236998796
1700006760487124500,9.49812451171875,0.5101975202601403,1.3026017704695463,0.3318955110194161
1700006760497069600,9.508069580078125,0.5804279714364559,1.0806979719221592,0.49838060654252764
1700006760507014400,9.518014404296874,0.5956207913279533,0.754896576526761,0.6816648977078497
1700006760516959500,9.52795947265625,0.5332206684511155,0.3679652973860502,0.7781685118470341
1700006760526904600,9.537904541015624,0.3625449528377503,-0.033784196180105204,0.7760799420699477
1700006760536850400,9.547850341796876,0.2276069055598229,-0.3876590088933706,0.7913076140791178
1700006760546795500,9.55779541015625,0.16187745559718458,-0.568798835375905,0.7899559072092175
1700006760556740600,9.56774072265625,0.2177776585280895,-0.5586462746739387,0.746906016164273
1700006760566685400,9.577685546875,0.3388754695672542,-0.3083662764698267,0.65011313675493
1700006760576630500,9.587630615234374,0.32951259793825444,-0.017726795348525046,0.54399435672611
1700006760586575600,9.59757568359375,0.35922260348200796,0.22154957828223704,0.4828675782533362
1700006760596521700,9.607521728515625,0.39907990903072055,0.45001521956324575,0.4575676807694137
1700006760606466600,9.617466552734374,0.20814115758948026,0.5519646049529314,0.5086792246516794
1700006760616411400,9.627411376953125,-0.08337393732257187,0.49555005929172036,0.6085716775115579
1700006760626356500,9.6373564453125,-0.13769121844358742,0.3505214106321335,0.6931051601327956
1700006760636301600,9.647301513671875,-0.15577851766757667,0.18593875119686126,0.7759187601588666
1700006760646246400,9.657246337890625,-0.39706798468641935,0.02358253563940525,0.8384151099517941
1700006760656192500,9.667192626953126,-0.5304815988760441,-0.12001987960934639,0.9132634301871061
1700006760666137300,9.677137451171875,-0.5289700252693146,-0.150519062769413,1.0049326099071652
1700006760676082700,9.687082763671874,-0.4069125023525208,-0.1495458338230848,1.0346625622604042
1700006760686027500,9.697027587890625,-0.28132812048383055,-0.11754033775329589,0.9727459851168095
1700006760695972400,9.706972412109375,-0.24222945128269494,-0.02899871546924114,0.8577133924007415
1700006760705917700,9.716917724609376,-0.30377595300488175,0.09733692315816879,0.6525484010778367
1700006760715863600,9.726863525390625,-0.4719336213827133,0.20026596723496912,0.405313834984228
1700006760725808600,9.73680859375,-0.6156290486771613,0.08727262526154518,0.2302187685586512
1700006760735753500,9.74675341796875,-0.48489597880840296,-0.33193595262765885,0.1569805869337171
1700006760745698600,9.756698486328125,-0.18102175306081772,-0.7991986595898867,0.127159120372124
1700006760755643600,9.7666435546875,-0.02435936523079872,-1.282428166490793,0.1018986415831372
1700006760765588500,9.77658837890625,0.07594451797418296,-1.7434575320214032,0.17866379175782202
1700006760775534600,9.78653466796875,0.30543489919304845,-2.0881044976621865,0.3095314112590626
1700006760785479400,9.7964794921875,0.3785398828923702,-2.36456640034914,0.38579887757729736
1700006760795424500,9.806424560546875,0.2162614087462425,-2.573141346246004,0.42643312231525776
1700006760805369600,9.81636962890625,0.08850121720843017,-2.67180747218132,0.4350522263722494
1700006760815314400,9.826314453125,-0.006296542860940098,-2.6127432887941597,0.4949301372950896
1700006760825259500,9.836259521484376,0.017882862693071364,-2.415320436030626,0.549568978520669
1700006760835205600,9.84620556640625,0.02355973928570747,-2.0972540188014506,0.5801861985698342
1700006760845150500,9.856150390625,0.09232070243135095,-1.8398890307724476,0.6335955710656941
1700006760855095600,9.866095458984375,-0.11992058395333588,-1.7684201238423585,0.7002877651132643
1700006760865040600,9.87604052734375,-0.4423486304581165,-1.9250299047023056,0.7767654401160776
1700006760874985500,9.8859853515625,-0.515123943811655,-2.179196388950944,0.7034000519149005
1700006760884930600,9.8959306640625,-0.6838849118448793,-2.4672078596562144,0.39096053465679287
1700006760894876400,9.90587646484375,-0.7216425417006015,-2.729015214046836,0.05413286446481943
1700006760904821800,9.91582177734375,-0.5318308945931494,-2.9541175163745876,-0.2763679407931864
1700006760914766600,9.9257666015625,-0.27079613201022146,-3.0407027438938616,-0.614330679429695
1700006760924711400,9.93571142578125,-0.07406359959840775,-3.0328952850133177,-0.9681608492836355
1700006760934656500,9.945656494140625,0.09221417331695556,-2.856744937381148,-1.1940351588971911
1700006760944601600,9.9556015625,0.06043488721847534,-2.5546669474005697,-1.390912944998592
1700006760954547500,9.96554736328125,-0.07034487133622169,-2.0696096405506132,-1.5352739235296844
1700006760964492500,9.975492431640625,-0.17707396528311073,-1.3320324476152658,-1.614145069540292
1700006760974437400,9.985437255859376,-0.16035305904150007,-0.48201720850169655,-1.7237021534547208
1700006760984382700,9.9953828125,-0.15214505653604865,0.3319090646207332,-1.8165946644246578
1700006760994327600,10.00532763671875,-0.2427788287937641,0.9348568378359079,-1.8436838930107653
1700006761004272400,10.0152724609375,-0.2755331704694778,1.3452356280595064,-1.783517301339656
1700006761014218500,10.025218505859375,-0.1601426311612129,1.5202619400978088,-1.6214333268523216
1700006761024163600,10.03516357421875,-0.2515922498464584,1.5252917509585617,-1.5450190724745392
1700006761034108400,10.0451083984375,-0.47888840895667667,1.2928852630972862,-1.5840815013185143
1700006761044053500,10.055053466796876,-0.42265389603748915,0.8601023333638906,-1.696689058844745
1700006761053998600,10.06499853515625,-0.1889911245048046,0.4801198504477739,-1.6319526750400661
1700006761063943700,10.074943603515624,-0.00551554855108261,0.20045301423966883,-1.4591132055215537
1700006761073889500,10.0848896484375,0.16725385140590368,-0.057822658893465995,-1.2508677838400006
1700006761083834400,10.09483447265625,0.10089534629210829,-0.13154489770829678,-0.9650012162089348
1700006761093779500,10.104779541015626,-0.020004677152633665,-0.12251520355641841,-0.6891480200048535
1700006761103724500,10.114724609375,-0.19362536017671225,0.007487725406885147,-0.5000199712473898
1700006761113669600,10.124669677734374,-0.12230426421947777,0.15566227087676524,-0.461944288418442
1700006761123614500,10.134614501953125,0.08662957811765372,0.2878162403941154,-0.4999890646524727
1700006761133560300,10.144560302734375,0.22211349577531217,0.46062896803617476,-0.5753606781095266
1700006761143505700,10.154505615234376,0.27579963938593866,0.6817898392617702,-0.6743428111914544
1700006761153450500,10.164450439453125,0.3065152417756617,0.8665122004061937,-0.7385493259031325
1700006761163395300,10.174395263671874,0.4203087942160666,0.979702526256442,-0.7868661245003342
1700006761173340700,10.184340576171875,0.5047137550868094,1.1767109530001878,-0.753789638198167
1700006761183285500,10.194285400390624,0.49885801479592917,1.4282301376104354,-0.6522692918755114
1700006761193230600,10.204230712890626,0.5263865115821361,1.5766636262774467,-0.6355915671885013
1700006761203176400,10.214176513671875,0.5560558197893202,1.6721517066985367,-0.6509864855233579
1700006761213121500,10.22412158203125,0.5799952060423791,1.781552577137947,-0.6375948698349296
1700006761223066600,10.234066650390625,0.6008556963067502,1.8702905987769365,-0.6211565068617463
1700006761233011500,10.244011474609374,0.5452887073855847,1.9526094010233879,-0.6069599314659834
1700006761242956300,10.253956298828125,0.5118061245005577,2.0687994932115075,-0.6799722684457897
1700006761252901600,10.263901611328125,0.4873357731759548,2.202420612671971,-0.7377924431212246
1700006761262847500,10.273847412109374,0.4245323301952332,2.340086623609066,-0.813412039989978
1700006761272792600,10.28379248046875,0.3647882747851312,2.417023148295283,-0.873471810285747
1700006761282737400,10.2937373046875,0.3200537916541099,2.4036019411861895,-0.8150344535600393
1700006761292682500,10.3036826171875,0.22768764264583585,2.375277179455757,-0.7623573408614843
1700006761302627600,10.313627685546875,0.1726736114323139,2.2920862705498934,-0.7058472258713095
1700006761312572400,10.323572509765626,0.14265958144068716,2.15415664024055,-0.6308820743232965
1700006761322518500,10.3335185546875,0.14956161591410636,2.0121108067840336,-0.571891979085654
1700006761332463600,10.343463623046874,0.18068273036479948,1.8454285447210073,-0.5295203160958364
1700006761342408400,10.353408447265625,0.3021837884426117,1.7366028438210486,-0.48313236666936427
1700006761352353500,10.363353515625,0.40364977422952647,1.644032696673274,-0.5094734072366729
1700006761362298400,10.37329833984375,0.4568647201318293,1.4522580789297819,-0.6104746615886688
1700006761372243500,10.383243408203125,0.5227297426402568,1.2622428720742462,-0.6504245407916605
1700006761382189600,10.393189453125,0.26556692611984906,1.1713315980494021,-0.6111852210108191
1700006761392134400,10.403134521484375,-0.024087051095440983,1.0076263059705495,-0.5809065487336367
1700006761402079500,10.41307958984375,0.38842290593795475,0.805322695428133,-0.5549929397981613
1700006761412024600,10.423024658203126,0.7326653824310749,0.6610919191479683,-0.6104574912581593
1700006761421969400,10.432969482421875,0.5526666888076812,0.5018237327337265,-0.7018116136796773
1700006761431914500,10.44291455078125,0.6675052933216095,0.31551322561502454,-0.7929575001779944
1700006761441860400,10.4528603515625,0.9795932937283068,0.21942367216944694,-0.8543721191488206
1700006761451805700,10.4628056640625,1.0280968470692633,0.17170739674866198,-0.9303752354424446
1700006761461750500,10.47275048828125,0.9962216263156384,0.0023947861820459364,-0.9488543104629963
1700006761471695400,10.4826953125,1.0957950763542204,-0.27906594770550724,-0.8802814172353595
1700006761481640700,10.492640625,1.2248271144587546,-0.5401140081614255,-0.8202978539809584
1700006761491585500,10.50258544921875,1.291716219317913,-0.7476999430209398,-0.8483396340515464
1700006761501531600,10.51253173828125,1.25369423943758,-1.0030945077598095,-0.8381495178181677
1700006761511476500,10.5224765625,1.2181694101352243,-1.228643384811282,-0.6647795946847647
1700006761521421300,10.53242138671875,1.237181496053934,-1.304967330557108,-0.46847628400307145
1700006761531366700,10.54236669921875,1.0918868899345398,-1.4016560189396141,-0.387619626731053
1700006761541311500,10.5523115234375,0.920417320529744,-1.6983552384912968,-0.4232399522971362
1700006761551256300,10.56225634765625,0.8583529324132949,-2.1235867299318314,-0.5867791305614635
1700006761561202400,10.572202392578125,0.8654968858838081,-2.643997674235701,-0.7762779488600791
1700006761571147500,10.5821474609375,0.8242880926609039,-3.2883219984561203,-1.0276495416931808
1700006761581092600,10.592092529296876,0.808258164358139,-3.890581204885244,-1.0964934338819234
1700006761591037400,10.602037353515625,0.8479284959673881,-4.282136052173376,-0.8911723021492362
1700006761600982500,10.611982421875,0.8928829785246402,-4.5596723060935735,-0.6108746572243049
1700006761610927600,10.621927734375,0.8058897547263651,-4.730581830462813,-0.41874037585556506
1700006761620873500,10.63187353515625,0.7738274869680404,-4.859502224886417,-0.45308016009181734
1700006761630818600,10.641818603515626,0.46434528514556583,-4.83286439332962,-0.6716922236174344
1700006761640763600,10.651763671875,0.1192166734676808,-4.569671137538552,-0.9868126505225896
1700006761650708500,10.66170849609375,0.10698628357835113,-4.150139319044351,-1.3676291000448166
1700006761660653600,10.671653564453125,-0.005813654714822769,-3.54595411298871,-1.6537361984334884
1700006761670598400,10.681598388671874,-0.2282267179585993,-2.694711962428689,-1.7299154750116168
1700006761680544500,10.69154443359375,-0.5757260042905807,-1.781114185720682,-1.7269482957690954
1700006761690489600,10.701489501953125,-1.0310884301006793,-0.9552771100521087,-1.6404558610998092
1700006761700434400,10.711434326171876,-1.4001134656727314,-0.23075229091346264,-1.4204913600519298
1700006761710379500,10.721379638671875,-1.8804443285226822,0.33872692794203757,-1.1742583722162991
1700006761720324600,10.73132470703125,-2.3441209936916825,0.7338964585959911,-0.9724740363076328
1700006761730269400,10.74126953125,-2.5132816285669803,0.9069085082024335,-0.8417009997546673
1700006761740215600,10.751215576171875,-2.549022804033756,0.9359493092477321,-0.803178815267235
1700006761750160400,10.761160400390626,-2.3020319105029103,0.836794523012638,-0.760041757395491
1700006761760105700,10.771105712890625,-1.9986662187993525,0.686588763976097,-0.8082941124543547
1700006761770050600,10.781050537109374,-1.754451804244518,0.5885667811632156,-0.9490301054213196
1700006761779995400,10.790995361328125,-1.5216671307206153,0.5130366161435842,-1.0476235314466058
1700006761789940500,10.8009404296875,-1.2669231388449669,0.4213923516690731,-1.039590374051407
1700006761799886600,10.810886474609376,-0.9894856691241264,0.4120885167509317,-0.8492044341873377
1700006761809831700,10.820831787109375,-0.8133306453168392,0.5724105961322784,-0.6472020716138184
1700006761819776500,10.830776611328124,-0.7847299161892384,0.785046215596795,-0.3810809456773102
1700006761829721300,10.840721435546875,-0.8753086703240871,0.8128840705931186,-0.12542765693701802
1700006761839666700,10.850666748046875,-0.7745908725559711,0.6136942081570625,0.11104761473312973
1700006761849611500,10.860611572265626,-0.7152478722274302,0.3685878131985664,0.1961019794233143
1700006761859557600,10.8705576171875,-0.7766787847459315,0.518829812592268,0.22952567172795532
1700006761869502500,10.88050244140625,-0.6188462571579962,0.7692793221443891,0.39800285438373684
1700006761879447600,10.890447509765625,-0.2666471956372261,0.8094342224001884,0.2689864522397518
1700006761889392600,10.900392578125,-0.12302899829745292,0.7854302464783192,0.0924007453976199
1700006761899337500,10.91033740234375,-0.0004022241253405809,0.7582388726919889,0.11887103836778551
1700006761909282600,10.920282470703125,0.11907171203903853,0.729081167268753,0.2937387257782742
1700006761919228700,10.930228759765624,-0.25731230799369514,0.6552817715644836,0.48356977170594034
1700006761929173500,10.940173583984375,-0.09773556708693504,0.6232055483460426,0.7690599803052842
1700006761939118600,10.95011865234375,0.36767135594077405,0.7074865905761718,0.9497826042890548
1700006761949063400,10.9600634765625,0.27490086391530927,0.8619728034108877,0.9862718216441572
1700006761959008500,10.970008544921875,0.29688677801303565,0.9908844300061463,0.9692788935281336
1700006761968953600,10.97995361328125,0.46001280889920887,1.1332342148452996,0.9054550945237279
1700006761978899000,10.98989892578125,0.4095324025273323,1.318814654123783,0.8097294059544802
1700006761988844000,10.999843994140624,0.3266694834668189,1.4579320329129695,0.7557856343209743
1700006761998789000,11.0097890625,0.2703087138194591,1.5749802032351492,0.7011084338463842
1700006762008734000,11.01973388671875,0.24577976417541503,1.737036559063196,0.6490077327962964
1700006762018678800,11.0296787109375,0.266242706489563,1.9243512747883795,0.5834297836009412
1700006762028624100,11.0396240234375,0.14856084137372672,2.069057851886749,0.4206934096194804
1700006762038569000,11.04956884765625,-0.04062302922420204,2.21702547660768,0.24989888993203638
1700006762048515000,11.05951513671875,-0.119887704597041,2.3960166006237267,0.20195223982147872
1700006762058460000,11.0694599609375,-0.03545483280606568,2.4844389804422855,0.13577807829864322
1700006762068405000,11.079405029296876,-0.011068433437868952,2.505117611333728,0.026939371786639094
1700006762078350000,11.08935009765625,0.04798698212094605,2.4700217480331657,-0.07367438108511269
1700006762088295000,11.099294921875,0.17947868833728134,2.4156495218545198,-0.061509676843136546
1700006762098240000,11.109239990234375,0.2765454893171787,2.294867425701022,-0.04060227869711816
1700006762108186000,11.11918603515625,0.31520810518860815,2.11376033244431,-0.02805493181310594
1700006762118131000,11.129130859375,0.38649296078868206,1.9294898067206143,0.02214512324742973
1700006762128076000,11.139075927734375,0.4942424838244915,1.7335843727827072,0.08490772276110947
1700006762138021000,11.149021240234376,0.5223615669149905,1.5279454803377388,0.19741233136951922
1700006762147966000,11.158966064453125,0.5243640658438206,1.266428633326292,0.27202326265238225
1700006762157911000,11.1689111328125,0.6291945596277714,0.9918015448510646,0.2799970180105418
1700006762167857000,11.17885693359375,0.5831599536836147,0.7882868049532175,0.28480536814033985
1700006762177802000,11.188802001953125,0.6508090100646019,0.6363087755471467,0.34183183515481647
1700006762187747000,11.1987470703125,0.9423894983630627,0.6256634628921747,0.47526817263290283
1700006762197692000,11.20869189453125,1.131234565460682,0.6515320636421441,0.5194175493523479
1700006762207637000,11.218636962890624,1.2227929052174091,0.6070242288738489,0.525116272450611
1700006762217582000,11.22858203125,1.2880138576686382,0.5044546657592058,0.4822497751485556
1700006762227528200,11.238528076171875,1.201229892706871,0.3833025672495365,0.5132080271877348
1700006762237473000,11.24847314453125,0.9856126270830631,0.24225451265871523,0.6725812083464116
1700006762247417900,11.25841796875,0.8168331004798411,0.09364742099046706,0.8191438616402447
1700006762257363200,11.26836328125,0.6713292355239391,-0.05021686006486416,0.957265142064169
1700006762267308000,11.27830810546875,0.6118424062779173,-0.19376433025598525,1.028799880772084
1700006762277252900,11.2882529296875,0.6308826588451862,-0.26247604743242264,1.0837074559364468
1700006762287199000,11.298198974609376,0.6122352415204048,-0.30143092424869533,1.1142477748245
1700006762297144000,11.30814404296875,0.5172282226145267,-0.33431846385002134,1.0967515733614563
1700006762307089200,11.318089111328124,0.6005810806164518,-0.420236167371273,1.0488343685410917
1700006762317034000,11.328033935546875,0.7406921100854873,-0.5204325716137885,0.9859496039524673
1700006762326978800,11.337978759765624,0.7522703196763992,-0.6307078868001699,0.8726319984607398
1700006762336924200,11.347924072265625,0.7374117732405662,-0.6973895594537258,0.8085616042841225
1700006762346870000,11.3578701171875,0.707894586855173,-0.6127601421773433,0.67166570093669
1700006762356815000,11.367815185546876,0.5467465415110812,-0.43490825132429595,0.4932699855305254
1700006762366760000,11.377760009765625,0.3853156606376171,-0.3727642221003771,0.3957918272707611
1700006762376705000,11.387705078125,0.23396306965351105,-0.4821750294119119,0.39392281852848826
1700006762386650000,11.397650146484375,0.24306290643215178,-0.7153384731203317,0.5252759199917316
1700006762396595000,11.407594970703125,0.33253691419549286,-0.8694295491576194,0.624284210428223
1700006762406541000,11.417541015625,0.1871264996767044,-0.8984300181925297,0.6129344027657061
1700006762416486100,11.427486083984375,-0.054409672112204134,-1.0775281097143887,0.45367023493945596
1700006762426431000,11.437430908203124,0.08453114453367888,-1.37588970952034,0.24256277489028868
1700006762436376000,11.4473759765625,0.6236019272524863,-1.582985230514407,0.06274257963895798
1700006762446321000,11.45732080078125,0.3092623485267162,-1.5736726277679205,-0.18990012910850346
1700006762456266000,11.467265869140626,-0.12318908422999084,-1.459294553437829,-0.4871568364124745
1700006762466212000,11.477212158203125,0.11893734506964683,-1.2593290304541587,-0.9168371239554136
1700006762476157000,11.487156982421874,0.02098082870841026,-0.961554290625453,-1.3986229348540304
1700006762486102000,11.49710205078125,-0.12158990540504455,-0.6423515628427267,-1.7135864176318047
1700006762496047000,11.507047119140625,0.025444128260202703,-0.26769465886354443,-1.867400430293381
1700006762505992000,11.516991943359375,0.05445515522174537,0.19109423426389693,-2.023001910893619
1700006762515937000,11.52693701171875,-0.10804068800210952,0.5602063635975122,-2.167136825583875
1700006762525883000,11.5368828125,-0.27530506080202755,0.7908522715270518,-2.2672531503275035
1700006762535828200,11.546828125,-0.2896902175724506,0.9008376638561487,-2.300351994591951
1700006762545773000,11.55677294921875,-0.10485029446296393,0.9388853626996279,-2.2459765535429117
1700006762555718000,11.5667177734375,-0.022118235240504144,0.9033470163285732,-2.162798796379566
1700006762565663000,11.5766630859375,-0.073197265092656,0.7250444590985775,-2.1090977474607526
1700006762575608000,11.586608154296876,-0.031515009139105675,0.5055126503795385,-2.099523425038159
1700006762585554200,11.59655419921875,0.13653963725566864,0.3478302718520164,-2.062814719713479
1700006762595499000,11.6064990234375,0.21571889936737715,0.12917992214262486,-2.0638775266394016
1700006762605443800,11.61644384765625,0.3176245186805725,-0.07036942125558852,-1.9975234785050153
1700006762615389200,11.62638916015625,0.4009527902305126,-0.11381284166276454,-1.7485153999328613
1700006762625334000,11.636333984375,0.48528169019035994,-0.0996194811373949,-1.535271000920236
1700006762635278800,11.64627880859375,0.5068436067223548,-0.16660335160791873,-1.3166940087080001
1700006762645224200,11.65622412109375,0.5990472586452961,-0.2752308995872736,-1.1190163044005632
1700006762655170000,11.666170166015625,0.7912696201562881,-0.3867138369977474,-1.0157988718364388
1700006762665115100,11.676115234375,0.8721675227541476,-0.4096107284605503,-0.920136238566041
1700006762675060000,11.68606005859375,0.9411106375336646,-0.31159575991034505,-0.8706125483971089
1700006762685005000,11.696005126953125,0.9625263505280017,-0.11172551399469376,-0.9446226642426103
1700006762694950100,11.7059501953125,0.7612566130779683,0.10152560701966284,-1.0430134803678839
1700006762704895000,11.71589501953125,0.7143091300725937,0.3009545389086008,-1.1172226259168236
1700006762714841000,11.725841064453125,0.8324784864444286,0.5030938988000154,-1.1470254973758012
1700006762724786000,11.735785888671876,0.9308557855010032,0.6522936956644058,-1.1789127738934009
1700006762734731000,11.74573095703125,0.9616881461381912,0.7615572034597397,-1.1890315053910017
1700006762744676000,11.755676025390626,0.9925403805196285,0.8445575582295656,-1.175710470720753
1700006762754621000,11.765620849609375,1.058601875448227,0.8784118970364332,-1.1574646199341863
1700006762764566000,11.77556591796875,1.0703694701313973,0.8450251757413149,-1.1482744745235889
1700006762774512000,11.78551220703125,0.9714800568342208,0.8004395995616912,-1.1315540066733956
1700006762784457000,11.79545703125,0.9465348545394837,0.7812339638322592,-1.0737382889773697
1700006762794402000,11.805402099609376,0.991503292556852,0.755797324758768,-0.9974901849467307
1700006762804347100,11.81534716796875,1.0741793838083744,0.7380553318411112,-0.9222515502195805
1700006762814292000,11.8252919921875,1.1324538781225681,0.7317249597758054,-0.8472658673401922
1700006762824237000,11.835237060546875,1.1948327390156686,0.7624877623081207,-0.7825715691115707
1700006762834183000,11.845182861328125,1.2613117287039757,0.7922820120692252,-0.7957893626030534
1700006762844128300,11.855128173828126,1.2952642671883106,0.8418459611833095,-0.8262536936454474
1700006762854073000,11.865072998046875,1.4071043474733829,0.8624000889122485,-0.8734350584719329
1700006762864018000,11.875017822265624,1.5299825391232966,0.8760434143394231,-0.9414097666107117
1700006762873963000,11.884962890625,1.4967209055125712,0.9234662597715854,-0.9523739359565079
1700006762883908000,11.894908203125,1.3595230966091154,0.9708429279744625,-0.9192980341762303
1700006762893854000,11.90485400390625,1.2686147451937198,0.9898118323385715,-0.8770639895588159
1700006762903799000,11.914799072265625,1.2779904763042926,0.9619751463860273,-0.8447161828573793
1700006762913744000,11.924743896484374,1.2591688714563847,0.8690344123601913,-0.8729337578862905
1700006762923689200,11.934689208984375,1.1484381406527011,0.654275809392333,-0.8989289806906133
1700006762933634000,11.944634033203124,1.1561082368891686,0.4613403311759233,-0.9541897532068192
1700006762943579000,11.954578857421875,1.250625353386253,0.24631752431392667,-1.06800960913226
1700006762953524200,11.964524169921875,1.295062022614479,-0.02893909423649311,-1.3146148643463849
1700006762963470000,11.974469970703124,1.3757938479304312,-0.3145534406721592,-1.4852728981725871
1700006762973415000,11.984414794921875,1.1432896718483418,-0.4682680846124887,-1.5011885524459183
1700006762983359500,11.994359375,1.023941992412135,-0.5809095444083213,-1.3845157913073896
1700006762993304600,12.0043046875,1.1986463059544563,-0.6895236483842134,-1.1960114274062215
1700006763003249700,12.014249755859375,0.8100562998212874,-1.0372148040264844,-1.0859307580091058
1700006763013194500,12.024194580078126,0.5789363446392118,-1.4359920037835836,-0.8666028012990951
1700006763023140600,12.034140625,0.7990557439878583,-1.6099153230160475,-0.6458799561645835
1700006763033085700,12.044085693359374,0.5714427740134298,-1.7094728448331356,-0.6154596103943883
1700006763043030500,12.054030517578125,0.10148929359726608,-2.029267693290114,-0.75605239549838
1700006763052975600,12.0639755859375,0.0690763857703656,-2.506293669375777,-0.8393178309451789
1700006763062920400,12.07392041015625,0.1983681707896292,-2.86311914858818,-0.8878953263051808
1700006763072865500,12.083865478515625,0.0862953046619892,-3.0494892769396302,-0.8927673162557184
1700006763082810600,12.093810546875,-0.24241174904704094,-3.0605653822273013,-0.9099375737000256
1700006763092756500,12.103756591796875,-0.3917560689486563,-2.8146605303674934,-0.9857109728910028
1700006763102701600,12.11370166015625,-0.47816835105381905,-2.233484443977475,-1.0804911973036826
1700006763112646700,12.123646728515626,-0.6299133754216134,-1.4360516250163315,-1.1517606361389159
1700006763122591500,12.133591552734375,-0.7992204330302775,-0.5740209539383649,-1.193871785029024
1700006763132536600,12.14353662109375,-0.9665363168217241,0.25496318758428094,-1.1678667714830486
1700006763142481700,12.153481689453125,-1.085727344391495,0.9121206898927688,-1.1251182014722376
1700006763152427800,12.163427734375,-1.1324981556557119,1.3026643143117427,-0.9877744812920689
1700006763162372600,12.17337255859375,-1.1470096422195435,1.4696628027170895,-0.7432175369098782
1700006763172317400,12.1833173828125,-1.1181858449257909,1.3793974253803492,-0.47494493202790616
1700006763182262800,12.1932626953125,-0.9967078754626214,1.0876187110960482,-0.3573160392083227
1700006763192207600,12.20320751953125,-0.8097242913879453,0.7496586758732795,-0.4423248111911118
1700006763202152400,12.21315234375,-0.6944997562963515,0.5282365233629942,-0.5275194611348212
1700006763212098600,12.2230986328125,-0.6786379511021077,0.38957448712587356,-0.5685631269238889
1700006763222043400,12.23304345703125,-0.8642226281642913,0.2266974625647068,-0.5237144428286701
1700006763231988700,12.24298876953125,-0.8564169228494167,0.02535012983381748,-0.4452941093254834
1700006763241933600,12.25293359375,-0.6178350342888385,-0.13277999246120453,-0.32786680349260566
1700006763251878400,12.26287841796875,-0.4686918629825115,-0.170133279299736,-0.2518417676281184
1700006763261823700,12.27282373046875,-0.38647052976116536,-0.243597743961215,-0.2923101177472621
1700006763271769600,12.28276953125,-0.28313991914615033,-0.3404395770788193,-0.38404491004943847
1700006763281714700,12.292714599609376,-0.22201661127209663,-0.3328846316546202,-0.47008879723362623
1700006763291659500,12.302659423828125,-0.2183656875491142,-0.23065233767032622,-0.44360725221708414
1700006763301604600,12.3126044921875,-0.2180711615819484,-0.09240297388732432,-0.31374614287726577
1700006763311549700,12.3225498046875,-0.2161526876747608,0.0963385597705841,-0.2574498898334801
1700006763321495600,12.33249560546875,-0.19597250782474873,0.3120201228022575,-0.16038791115917264
1700006763331440600,12.342440673828126,-0.11389409020543098,0.4777490296632051,-0.030829657223448156
1700006763341385700,12.3523857421875,-0.045175212635844945,0.6268295840620994,0.10319061762243509
1700006763351330600,12.36233056640625,0.06496157086268067,0.7887935854315757,0.22147665917649864
1700006763361275600,12.372275634765625,0.22644144197702407,0.9279360986620188,0.28842662737742064
1700006763371220500,12.382220458984374,0.290421965913102,0.9937222837805747,0.25770138037651774
1700006763381165600,12.39216552734375,0.302345043418929,0.9963625691562891,0.1868860419843346
1700006763391111700,12.402111572265625,0.30956271971277893,0.9676473468035459,0.1260891165204346
1700006763401056500,12.412056396484376,0.3394341263633221,0.8924643877863884,0.07267104926146567
1700006763411001600,12.422001708984375,0.3548866931695491,0.8078653656482696,0.04200783464610577
1700006763420946700,12.43194677734375,0.3583703705668449,0.6821329536110162,0.012660086543485521
1700006763430891500,12.4418916015625,0.33689854347109793,0.5972597907066345,0.04125146332085133
1700006763440836600,12.451836669921875,0.33307927744388577,0.5157739321529865,0.016827800682187078
1700006763450782500,12.461782470703126,0.35914077041745185,0.3869423850566149,-0.07698865673225373
