time,Acc_z,Acc_y,Acc_x,Gyro_z,Gyro_y,Gyro_x,Mag_z,Mag_y,Mag_x
1700006751029262600,0.9276900149464606,0.314827873699367,-0.1428467563095502,-0.1171053349971771,0.0920275226235389,-0.0249845180660486,-65.7630386352539,-10.4501953125,-3.632282257080078
1700006751039207400,1.056369586351514,0.3336652606382966,-0.028301033794973,-0.1147614866495132,0.0714332982897758,-0.1025916934013366,-65.8013687133789,-10.23305892944336,-3.676231384277344
1700006751049152500,1.1290572214215993,0.3522477960333228,0.0560871403377503,-0.104916863143444,0.045500248670578,-0.1839657872915268,-65.82076263427734,-10.31317901611328,-3.7322921752929688
1700006751059097600,1.0888847855091095,0.3231652016729116,0.0733455327232368,-0.1027852743864059,0.0071946745738387,-0.2519746720790863,-65.73184967041016,-10.365379333496094,-3.508739471435547
1700006751069043500,0.955972106578946,0.3042982963785529,0.0456570413360372,-0.1144533604383468,-0.041204035282135,-0.3069634735584259,-65.43999481201172,-10.414020538330078,-3.3351593017578125
1700006751078988500,0.7301338911920785,0.2878217933520675,-0.012729918642994,-0.1276969909667968,-0.084725946187973,-0.337024450302124,-65.59290313720703,-10.218616485595703,-3.6254959106445312
1700006751088933400,0.4133680351674556,0.2726449747473001,-0.050740500346478,-0.1354665458202362,-0.1190568208694458,-0.3401352763175964,-65.94275665283203,-10.185184478759766,-3.5341148376464844
1700006751098878700,0.1201110650241374,0.2561538586735725,-0.0622804968188516,-0.136790931224823,-0.1425895690917968,-0.3269819319248199,-65.69426727294922,-9.911914825439451,-3.789936065673828
1700006751108823600,-0.0956476548969745,0.2425917817890644,-0.0512916496895253,-0.1276948899030685,-0.1474130898714065,-0.3074524402618408,-65.75487518310547,-9.463115692138672,-3.845302581787109
1700006751118768400,-0.2163712988615035,0.2368044305592775,-0.0052033773293718,-0.1195432171225547,-0.1259243041276931,-0.2952501177787781,-65.88314056396484,-9.342304229736328,-3.7716140747070312
1700006751128714500,-0.2487853757321834,0.2176683529347181,-0.0157367540424689,-0.1148001253604888,-0.0884013548493385,-0.2894274890422821,-65.92266082763672,-9.097408294677734,-3.979114532470703
1700006751138659600,-0.270722482252121,0.1823167613074183,-0.050705136772152,-0.1192840859293937,-0.053073726594448,-0.29111248254776,-65.80086517333984,-8.909812927246094,-3.949050903320313
1700006751148604700,-0.3033867344915866,0.1562272112831473,-0.1006471802173182,-0.1268685311079025,-0.0281592197716236,-0.2835421860218048,-66.1413345336914,-8.61844253540039,-4.0100860595703125
1700006751158549500,-0.3703694359183311,0.1833902357578277,-0.1036277669306844,-0.1256485283374786,-0.0070512723177671,-0.2531709671020508,-65.9103775024414,-8.453197479248047,-3.7700233459472656
1700006751168494300,-0.4962509010374545,0.1798711217209696,-0.0193805539049208,-0.1063208654522895,-0.0004984168335795,-0.2011600732803344,-66.0796890258789,-8.249099731445312,-3.870471954345703
1700006751178440400,-0.6337269423604012,0.168652393092215,0.1673195187869481,-0.0747280493378639,-0.0029975278303027,-0.1386852413415908,-66.1496810913086,-8.216358184814453,-3.7290992736816406
1700006751188385500,-0.6545932047784329,0.1770712618693709,0.3565270077224821,-0.0341898873448371,0.0006194580346345,-0.0826228782534599,-66.25765228271484,-8.136478424072266,-3.8106422424316406
1700006751198330400,-0.5726759690701961,0.1433507785752415,0.4903303518820553,-0.0001520263031125,-0.0022599510848522,-0.0362753570079803,-66.10897064208984,-8.161140441894531,-3.875450134277344
1700006751208275500,-0.413624640277028,0.0937841991126537,0.5176309581965208,0.0202865190804004,-0.03507000207901,-0.0131233800202608,-66.2178726196289,-8.154525756835938,-3.950428009033203
1700006751218220500,-0.1915279495060443,0.0473638087213039,0.5002242616478354,0.0217906720936298,-0.095573291182518,0.0017130905762314,-66.12677764892578,-8.169124603271484,-4.003929138183594
1700006751228165600,-0.0660673401474952,-0.0116603349164128,0.4924073042865842,0.0188318602740764,-0.1555170118808746,0.0211288537830114,-66.22863006591797,-7.912212371826172,-3.7241058349609375
1700006751238111500,-0.0373918652832508,-0.0192301856487989,0.4895366442210972,0.004525092896074,-0.2005534619092941,0.0418019108474254,-66.4930191040039,-8.16973876953125,-3.651592254638672
1700006751248056300,-0.0657224722325801,-0.0118424134850502,0.4918296139964833,-0.0064960373565554,-0.2150254994630813,0.0655460283160209,-66.41080474853516,-8.268009185791016,-3.892559051513672
1700006751258001700,-0.1095668746560812,-0.0285913037121295,0.5281565899945795,-0.0135507499799132,-0.1788959950208664,0.0809042155742645,-66.04248809814453,-8.149345397949219,-4.031108856201172
1700006751267946500,-0.0796305860757827,-0.0541930702194571,0.6103318555844948,-0.0146527672186493,-0.1071818694472312,0.0744721442461013,-65.80512237548828,-8.115570068359375,-4.3370361328125
1700006751277891300,0.0320545959085226,-0.079730831579864,0.6848610634006559,-0.0095631992444396,-0.0221753641963005,0.0413197837769985,-66.06836700439453,-8.216983795166016,-4.028038024902344
1700006751287837400,0.1880968060135841,-0.1170040389195084,0.7281763273835182,-0.0134482961148023,0.0635992512106895,-0.0185961779206991,-65.8572769165039,-8.33095932006836,-4.156711578369141
1700006751297782500,0.3629997839331627,-0.150852824768424,0.7535811830792576,-0.0167567413300275,0.1330196112394333,-0.0937513783574104,-66.20098114013672,-8.145942687988281,-4.444610595703125
1700006751307727600,0.5072065948158502,-0.1672968868300318,0.7793135171636939,-0.0202811099588871,0.1677728295326233,-0.1611118912696838,-66.21793365478516,-8.059749603271484,-4.3880157470703125
1700006751317672400,0.5328150833249092,-0.1532309520766138,0.8260485995274036,-0.0246327146887779,0.1675608456134796,-0.2044694870710373,-65.79280853271484,-8.013442993164062,-4.219291687011719
1700006751327617300,0.4611871864408254,-0.1021513377025723,0.8482029289945959,-0.0345879532396793,0.139246791601181,-0.218503326177597,-66.20125579833984,-8.080013275146484,-4.039817810058594
1700006751337563400,0.3337988238900899,-0.0612991028323769,0.8764801983214914,-0.041892472654581,0.1102742627263069,-0.2204058766365051,-65.99564361572266,-7.982181549072266,-4.023319244384766
1700006751347508500,0.2228407871365547,-0.0305763400495052,0.9255106250807642,-0.0389676764607429,0.1022827550768852,-0.2142106294631958,-66.2238540649414,-7.971202850341797,-3.783733367919922
1700006751357453600,0.1801484773576259,0.0486474187910556,0.9473197213068604,-0.0444106459617614,0.0900553837418556,-0.2017174810171127,-66.00682830810547,-7.692317962646484,-3.55615234375
1700006751367398400,0.1588859090983867,0.1027829136043786,0.906795695477724,-0.0528968051075935,0.078298233449459,-0.1946470588445663,-65.76276397705078,-7.714061737060547,-3.435314178466797
1700006751377343500,0.114834001404047,0.1551452612653374,0.8627254484090954,-0.0548326559364795,0.069211259484291,-0.1785591691732406,-65.8299789428711,-7.5322113037109375,-3.281208038330078
1700006751387288600,0.0754360569953918,0.1933285691872239,0.8388666531115769,-0.0466302558779716,0.0629171505570411,-0.16057650744915,-65.82178497314453,-7.440555572509766,-3.226299285888672
1700006751397234400,0.0311573548078536,0.2344809560477733,0.815702854340896,-0.0291346199810504,0.0571490079164505,-0.1379992961883545,-65.71503448486328,-7.617362976074219,-3.052032470703125
1700006751407179500,0.0511339749097824,0.2564189393505454,0.7703028930384666,-0.0127611979842185,0.0442093908786773,-0.1241549700498581,-65.40093231201172,-7.257102966308594,-3.08120346069336
1700006751417124600,0.1150906065136194,0.23069179289788,0.703443891056627,-0.0003780322149395,0.0114290732890367,-0.121489405632019,-65.69454193115234,-7.260913848876953,-3.2015342712402344
1700006751427069400,0.2107283245384693,0.1785731908649206,0.6320272257704287,0.0007784636691212,-0.0344256907701492,-0.1343418806791305,-65.94690704345703,-6.998256683349609,-3.379558563232422
1700006751437014500,0.3178442989110946,0.1058700659647583,0.5294066996535286,-0.0086584473028779,-0.0990100130438804,-0.1447881311178207,-65.71192169189453,-6.739665985107422,-3.108955383300781
1700006751446960400,0.2939613190203904,0.0301724354237318,0.40668556172885,-0.0304676052182912,-0.1413282454013824,-0.1493510603904724,-65.44292449951172,-6.746757507324219,-3.267398834228516
1700006751456905700,0.1729752247273921,-0.0511453730866312,0.3347470279930159,-0.0441051200032234,-0.1694371104240417,-0.1289983838796615,-65.46166229248047,-6.706508636474609,-3.2425994873046875
1700006751466850600,0.0801332749009132,-0.0854755127117037,0.3004598324605264,-0.0452311262488365,-0.1953354626893997,-0.0966444462537765,-65.60298919677734,-6.556705474853516,-3.111663818359375
1700006751476795400,0.014507833302021,-0.093391984924674,0.2681584404503926,-0.0432510673999786,-0.2236707061529159,-0.0702874064445495,-65.64386749267578,-6.569435119628906,-3.250823974609375
1700006751486740500,0.0766559541791677,-0.1436181973397731,0.2088941313812509,-0.0412435159087181,-0.2689673006534576,-0.0509569607675075,-65.87566375732422,-6.718208312988281,-3.088134765625
1700006751496685600,0.185745274451375,-0.2781444489464164,0.1729020133607089,-0.0280701909214258,-0.3354690968990326,-0.0537066720426082,-65.62520599365234,-6.779098510742188,-3.4412574768066406
1700006751506631700,0.3281809840083122,-0.4444596312627196,0.119880608135974,-0.0182720385491848,-0.4146462678909302,-0.0825070962309837,-65.63553619384766,-6.743648529052734,-3.591899871826172
1700006751516576500,0.4190782295078039,-0.6022872634798287,-0.0093378467855975,-0.0271201282739639,-0.4773895442485809,-0.1177465766668319,-65.4984359741211,-6.463169097900391,-3.636539459228516
1700006751526521300,0.3841086229354143,-0.6828060305669903,-0.2304096332219429,-0.0492887571454048,-0.5115180015563965,-0.1400635838508606,-65.57311248779297,-6.567352294921875,-4.025913238525391
1700006751536466700,0.2579331433057785,-0.6819146346852183,-0.5487774993494152,-0.0969116687774658,-0.5204119086265564,-0.156483307480812,-65.41934967041016,-6.573963165283203,-4.3182220458984375
1700006751546411500,0.0674549951136112,-0.6221019710183143,-0.9452077706541866,-0.1689604222774505,-0.5142934322357178,-0.1427461057901382,-65.79718780517578,-6.501266479492188,-4.514286041259766
1700006751556357600,-0.1986269678562879,-0.4433569307178258,-1.306639939944446,-0.245430439710617,-0.5043356418609619,-0.1057172492146492,-65.67378997802734,-6.434322357177734,-4.808383941650391
1700006751566302500,-0.4439268395602703,-0.1445750596731901,-1.561443845313787,-0.3115333318710327,-0.4737846255302429,-0.0382345058023929,-65.25287628173828,-6.264434814453125,-4.864349365234375
1700006751576247600,-0.586083732175827,0.1767480212643742,-1.678165852421522,-0.3596814274787903,-0.4007575511932373,0.0629645511507988,-65.3850326538086,-6.14129638671875,-4.908866882324219
1700006751586192600,-0.667177961063385,0.4129164920076728,-1.63201565727368,-0.3772912621498108,-0.2717053294181824,0.1699769049882888,-64.9267807006836,-6.182826995849609,-5.014509201049805
1700006751596137500,-0.5577548787921667,0.5434381841480732,-1.4586241068303585,-0.3702197670936584,-0.1226050406694412,0.2599637806415558,-64.93802642822266,-6.249324798583984,-5.354829788208008
1700006751606082600,-0.2558914083451032,0.5458931760847568,-1.1871142735928295,-0.3364409208297729,0.0127787264063954,0.321533054113388,-65.2560806274414,-6.466461181640625,-5.429496765136719
1700006751616028700,0.1718535272210836,0.5149249141082167,-0.962719827273488,-0.2932527065277099,0.0849501267075538,0.3344382047653198,-65.24822235107422,-6.790714263916016,-5.311775207519531
1700006751625973500,0.6509288370519876,0.4575096669718623,-0.8154683879978954,-0.2375828325748443,0.0451211556792259,0.293864905834198,-65.32515716552734,-6.824882507324219,-5.279962539672852
1700006751635918600,1.0249544573903082,0.2797729269310832,-0.5986319193100557,-0.1482217907905578,-0.083315908908844,0.2183991968631744,-65.31514739990234,-7.051597595214844,-5.11949348449707
1700006751645863400,1.2117834354251622,0.078962477555871,-0.3054713587459177,-0.0599534399807453,-0.211252674460411,0.1067706793546676,-64.9161605834961,-7.198219299316406,-5.09825325012207
1700006751655808500,1.2177724467068909,-0.2065066151902079,-0.1731423614552244,0.0201168954372406,-0.3231059610843658,-0.0283903386443853,-64.9565658569336,-7.2895660400390625,-5.135980606079102
1700006751665754600,1.0639379757791756,-0.5718719592109323,-0.0290399607950821,0.0945434123277664,-0.4016924500465393,-0.1882822811603546,-65.13248443603516,-7.239826202392578,-5.204648971557617
1700006751675699500,0.8223059789329766,-0.9459799971356988,0.0885734056618064,0.1671116203069687,-0.3923841714859009,-0.3459901511669159,-64.97399139404297,-7.089122772216797,-5.430461883544922
1700006751685644500,0.4740875845462083,-1.2791262023359535,0.0559378680601716,0.2203913629055023,-0.2945942878723144,-0.466508686542511,-65.26305389404297,-6.856948852539063,-5.610570907592773
1700006751695589600,0.040009938827157,-1.4852537550807,-0.0177842976894229,0.2573877274990082,-0.1323782503604889,-0.5156538486480713,-65.6629409790039,-6.7355804443359375,-5.739597320556641
1700006751705534500,-0.4341986417502164,-1.6762714169770478,-0.0152052409816533,0.2617164850234985,0.046114232391119,-0.4945600032806396,-65.35454559326172,-6.346931457519531,-5.824403762817383
1700006751715479600,-0.803866066879034,-1.79793117274791,0.0172579357277601,0.2290983647108078,0.206982210278511,-0.4144470691680908,-65.35884857177734,-6.026416778564453,-5.802759170532227
1700006751725425400,-0.9277525587886571,-1.8444187831565737,0.0609214651590213,0.1699026077985763,0.3526719808578491,-0.2943261563777923,-65.19202423095703,-5.859722137451172,-5.490732192993164
1700006751735370500,-0.793809952288866,-1.851966129796207,0.1049647876881063,0.0908517241477966,0.4395376443862915,-0.1604762375354766,-65.42815399169922,-5.491142272949219,-5.154209136962891
1700006751745315600,-0.4778559971690178,-1.7961635785534975,0.1601874201510101,0.0080529265105724,0.4611630737781524,-0.0320309400558471,-65.2968521118164,-5.349201202392578,-4.74351692199707
1700006751755260400,-0.0780997232466936,-1.729931110972166,0.3060184712346643,-0.0501238256692886,0.4325889348983764,0.0774100720882415,-65.52449798583984,-5.243244171142578,-4.494449615478516
1700006751765205500,0.2897217817544937,-1.5750225810721517,0.5147106868356466,-0.0863685011863708,0.3910467624664306,0.168395847082138,-65.55562591552734,-5.136466979980469,-4.069435119628906
1700006751775151600,0.5595265646398068,-1.4406319385439157,0.7019839015066623,-0.1109827682375907,0.3380511701107025,0.2550532519817352,-65.69609832763672,-5.349361419677734,-3.434513092041016
1700006751785096400,0.702708124127984,-1.3099319672271608,0.7182616670906543,-0.1391016244888305,0.2971763610839844,0.325277030467987,-65.60210418701172,-5.500446319580078,-3.1231346130371094
1700006751795041500,0.761360804104805,-1.1625725375324487,0.6627968964349478,-0.1655153781175613,0.266227513551712,0.3931127786636352,-65.64765167236328,-5.693805694580078,-2.724761962890625
1700006751804986400,0.746062112686038,-0.9831927064597606,0.6061702423930168,-0.1885663270950317,0.2372955083847046,0.4489305317401886,-65.87889862060547,-5.785961151123047,-2.463653564453125
1700006751814931700,0.7858002488344907,-0.7794011954471468,0.536771127474308,-0.204548493027687,0.1891961693763733,0.4749578535556793,-65.97870635986328,-6.216770172119141,-2.269691467285156
1700006751824876500,0.9624071080625056,-0.6109320499673485,0.5190313630463556,-0.2097484767436981,0.1110743880271911,0.4615584909915924,-65.94017791748047,-6.5247344970703125,-1.9337043762207031
1700006751834822400,1.1684873145341872,-0.5169084891408682,0.5245268551900982,-0.1996242105960846,0.0413389839231967,0.4168485403060913,-65.90349578857422,-6.820018768310547,-1.5409049987792969
1700006751844767500,1.3109645251452922,-0.4385229346901178,0.5771653894439339,-0.1650003939867019,-0.0127564324066042,0.3609007596969604,-66.17241668701172,-7.182239532470703,-1.1727561950683594
1700006751854712600,1.3393454009771346,-0.4151315377086401,0.6846792040277272,-0.0980487763881683,-0.0467599406838417,0.3120189607143402,-66.12425994873047,-7.490093231201172,-1.0956954956054688
1700006751864657400,1.1542957075744866,-0.3981064608886838,0.7029827763509005,-0.0311753787100315,-0.0502252168953418,0.2661439180374145,-66.17867279052734,-7.742927551269531,-1.059856414794922
1700006751874602500,0.9735077632695436,-0.3301853095680475,0.5606248447379097,0.0363149791955947,-0.0379347279667854,0.240344300866127,-65.78617095947266,-7.980613708496094,-1.1029891967773438
1700006751884548400,0.7768518032252788,-0.3742623517036438,0.4615574079927056,0.0857755839824676,-0.0402663201093673,0.2261333167552948,-66.12133026123047,-8.042407989501953,-1.290130615234375
1700006751894493700,0.6009393560022115,-0.5278182979509234,0.3085323537517339,0.1230558454990387,-0.0396953374147415,0.2137501537799835,-66.34423065185547,-8.005634307861328,-0.4463691711425781
1700006751904438500,0.4506090938031673,-0.7151739302083849,0.1335399074504152,0.1361219435930252,-0.0316085368394851,0.202381819486618,-65.95174407958984,-8.213336944580078,-0.2537879943847656
1700006751914383400,0.238522924914956,-0.8667407484650611,-0.0746666617917828,0.1223217099905014,-0.0120769143104553,0.1970419287681579,-66.07035064697266,-8.313995361328125,-0.1297264099121093
1700006751924328400,0.0024736966371536,-0.9891454773843288,-0.2865676285725086,0.0961192324757576,0.0254383496940135,0.1949049234390258,-66.4324722290039,-8.415355682373047,-0.3678436279296875
1700006751934273500,-0.2733399712741375,-1.118349072663486,-0.4046608875008299,0.0641596987843513,0.0847959443926811,0.2234593331813812,-66.33563995361328,-8.531085968017578,0.1606521606445312
1700006751944219600,-0.5654834272176027,-1.1596736012205482,-0.4939410166598856,0.0231146048754453,0.1432132273912429,0.2595988810062408,-66.2474136352539,-8.575374603271484,0.4045181274414062
1700006751954164500,-0.7455395501166582,-1.1675871508240698,-0.5537829064212739,-0.0212182383984327,0.2015535086393356,0.302961528301239,-66.20079803466797,-8.777557373046875,0.7159767150878906
1700006751964109300,-0.8656751650601625,-1.1811793305858969,-0.4939272073302417,-0.0543113052845001,0.261953592300415,0.3591814935207367,-66.23078155517578,-8.968441009521484,0.9931297302246094
1700006751974055200,-0.944300958007574,-1.190332943378389,-0.4062345300257206,-0.0816334784030914,0.3315167427062988,0.4186480045318603,-66.13434600830078,-8.953178405761719,1.4528350830078125
1700006751984000300,-1.0137100097984075,-1.150091241621971,-0.3450622684434056,-0.0975734069943428,0.3965586423873901,0.4836045801639557,-66.3947525024414,-9.31744384765625,1.9232139587402344
1700006751993946400,-1.0703466737776994,-1.1421429129660128,-0.2935777265302837,-0.1008064821362495,0.4463099539279938,0.5350105166435242,-66.47093963623047,-9.796924591064451,2.222007751464844
1700006752003891200,-1.012942532557249,-1.2003072249040008,-0.1353569120108149,-0.0977048128843307,0.4486343562602997,0.5714713931083679,-66.27294158935547,-10.253849029541016,2.7866744995117188
1700006752013836300,-0.9726800802737474,-1.3166677052229645,0.1083010559713467,-0.0893637984991073,0.4148367047309875,0.6219058036804199,-66.46167755126953,-10.581562042236328,3.3364830017089844
1700006752023781400,-1.023684875845909,-1.409151927652955,0.3229593769025057,-0.0699335932731628,0.3619363307952881,0.7064785957336426,-66.56221771240234,-10.856536865234377,3.793567657470703
1700006752033726200,-1.0661404542595148,-1.3641741372853518,0.3848300690777599,-0.0679367557168006,0.267872154712677,0.795944333076477,-66.76705169677734,-11.410999298095703,4.278602600097656
1700006752043671300,-1.0804957273483276,-1.177218318000436,0.3177931532457471,-0.0905558615922927,0.1405156850814819,0.8820868730545044,-66.82372283935547,-11.945232391357422,4.706840515136719
1700006752053617200,-1.0034732779443265,-0.9480851527214048,0.1432321206316351,-0.1277162879705429,0.0169737748801708,0.928963840007782,-67.12183380126953,-12.465789794921877,5.012981414794922
1700006752063562200,-0.7874088530749082,-0.6915712285637855,0.0020261081332806,-0.1684100478887558,-0.0785523876547813,0.9040995836257936,-66.76447296142578,-12.990253448486328,5.3531036376953125
1700006752073507300,-0.4638537753015756,-0.4797714754015207,-0.0676516410637181,-0.1832294762134552,-0.0968483015894889,0.8112210631370544,-66.81769561767578,-13.656875610351562,5.551914215087891
1700006752083452200,-0.1364028591334819,-0.3239016992539167,-0.0485087866385001,-0.1510887145996093,-0.0607099160552024,0.6733425855636597,-66.7593765258789,-14.33478546142578,5.582374572753906
1700006752093397500,0.1163163489162921,-0.1176812075287103,0.0039298137295991,-0.1045121625065803,-0.0005895867943763,0.511538028717041,-66.7660903930664,-15.146453857421877,6.016593933105469
1700006752103343400,0.2589338447809219,0.0475543628573417,0.0584449920428916,-0.0406020581722259,0.0509195141494274,0.3569523394107818,-66.78809356689453,-15.455448150634766,6.330123901367188
1700006752113288200,0.1982458595842123,0.1576964070528745,0.1267443838250823,0.0149727892130613,0.072378471493721,0.2475176900625229,-66.91214752197266,-15.84420394897461,6.38818359375
1700006752123233300,-0.0914011033684015,0.3122340578138828,0.0992607216944452,0.0454488471150398,0.076676070690155,0.2146719545125961,-66.78197479248047,-16.188175201416016,6.724895477294922
1700006752133178000,-0.7252145549684762,0.5772767408639192,-0.0546087748808786,0.0608935803174972,0.1086177602410316,0.2930743396282196,-67.10869598388672,-16.457202911376953,7.088287353515625
1700006752143123200,-1.5829922447770832,0.959071826159954,-0.149385282099666,0.097256138920784,0.1782069504261016,0.4676227271556854,-67.01110076904297,-16.743511199951172,7.370025634765625
1700006752153068300,-2.373501986476779,1.451201847875118,-0.0960945127484854,0.1706363409757614,0.288198173046112,0.7120165228843689,-66.86534881591797,-17.22738265991211,7.584205627441406
1700006752163014100,-3.0815298443228003,1.978613026329875,0.0711380492742173,0.2621075510978699,0.4195632934570312,0.9988268613815308,-66.90497589111328,-17.780799865722656,8.078231811523438
1700006752172959200,-3.5931016486108303,2.4983546930700538,0.2143100737490691,0.3172799944877624,0.4769839942455292,1.275993585586548,-66.68042755126953,-18.459861755371094,8.204517364501953
1700006752182904300,-3.76272405577898,2.779848744705319,0.3129601070661097,0.3371595442295074,0.4507036507129669,1.574315071105957,-66.29598236083984,-19.37045288085937,8.464279174804688
1700006752192849200,-4.043970270133018,3.039154345408082,0.5118399537049234,0.3847936391830444,0.3665554821491241,1.9519060850143437,-66.1382064819336,-20.521202087402344,9.009475708007812
1700006752202794200,-4.55619206276238,3.5207834313750266,0.8898558127231896,0.4855215549468994,0.1544377356767654,2.4078617095947266,-65.58721160888672,-21.934200286865234,9.36652374267578
1700006752212740000,-5.331426493918896,3.9409564703822135,1.5419181838497518,0.6267068982124329,-0.1630235761404037,2.981536865234375,-64.76897430419922,-23.51885986328125,9.331127166748049
1700006752222685400,-6.280633344146609,4.179711450487375,2.1205345027543605,0.7776159644126892,-0.467970073223114,3.623258829116821,-63.859031677246094,-25.560680389404297,9.12204360961914
1700006752232630300,-6.790797619724273,4.310796329468489,2.490991178564727,0.9073209762573242,-0.865449845790863,4.186271190643311,-62.70270538330078,-27.94684600830078,8.611507415771484
1700006752242575000,-6.491639901104569,4.398676857495308,2.5245871586963533,0.9945327043533324,-1.3488689661026,4.595878601074219,-61.582618713378906,-30.410400390625,7.750007629394531
1700006752252520400,-5.857139636284113,4.402489109259844,2.2420427212253213,1.0376156568527222,-1.7733230590820312,4.868088722229004,-59.99701690673828,-33.25749206542969,6.653564453125
1700006752262466300,-5.447424862927198,4.227980683615804,1.8072288701862096,0.9905772805213928,-2.0358989238739014,5.049173831939697,-58.08179473876953,-36.08869934082031,4.994102478027344
1700006752272411400,-5.284965771517157,3.9874318058311937,1.0609718925151974,0.8497381210327148,-2.003744125366211,5.197626113891602,-56.03696441650391,-39.01936340332031,3.3716278076171875
1700006752282356200,-5.313516158697009,3.869033974465728,0.4452842455185949,0.6261360049247742,-1.6891783475875854,5.3525238037109375,-54.02405548095703,-41.90777587890625,1.7292366027832031
1700006752292301000,-5.493288788479566,3.514310435968637,0.2653114169888198,0.4151531755924225,-1.2621431350708008,5.45458984375,-51.51073455810547,-44.69696807861328,0.1956558227539062
1700006752302246400,-5.453190586847066,3.0859774713814256,0.2352403961129486,0.3240998387336731,-0.7438511848449707,5.403783798217773,-48.338600158691406,-47.48799133300781,-0.8844261169433594
1700006752312191200,-4.496545403312147,2.9746745667129755,0.7136239242874085,0.5296284556388855,-0.2570452690124511,5.124556064605713,-45.27173614501953,-49.88574981689453,-1.8500480651855469
1700006752322137300,-2.994867459914088,2.4537089111357924,2.792933267205953,0.8575785756111145,0.1399002522230148,4.679996967315674,-42.33332061767578,-52.13990020751953,-2.493125915527344
1700006752332082200,-1.6099077242314814,2.5115759936928748,3.2370743340387937,1.0288642644882202,0.6494657397270203,4.196113586425781,-39.94376373291016,-53.901100158691406,-3.21120834350586
1700006752342027300,-0.5354308187812566,3.4186832393378017,1.2118737440571188,1.028576135635376,1.1628098487854004,3.7594010829925537,-36.926795959472656,-55.72484588623047,-4.087089538574219
1700006752351972400,-0.1174813010424375,3.5992221773177384,-0.1695120786614715,0.9255226850509644,1.4838125705718994,3.4268670082092285,-33.940086364746094,-56.8402099609375,-4.465621948242188
1700006752361917200,-0.0685198478661477,3.029980274349451,-0.6540238804578781,0.7431064248085022,1.5999056100845337,3.196307182312012,-31.747520446777344,-57.73423385620117,-4.987190246582031
1700006752371862300,-0.3751905724644661,2.520674661427736,-0.9199991681829094,0.5519841909408569,1.618129014968872,3.0104784965515137,-29.570533752441406,-58.592403411865234,-5.327505111694336
1700006752381808400,-0.6759598179340363,2.399300444599986,-1.0234132192976773,0.4151148498058319,1.6420789957046509,2.861161470413208,-27.42002868652344,-59.09661102294922,-5.377357482910156
1700006752391753200,-0.8370740706063806,2.6021903305977583,-1.0884539928764103,0.3326713740825653,1.5998618602752686,2.716001033782959,-25.28209686279297,-59.75835037231445,-5.469539642333984
1700006752401698300,-0.8425789516329765,2.6017688903152942,-1.2453569114640357,0.2571930587291717,1.4702473878860474,2.5579748153686523,-23.68106842041016,-60.2565803527832,-5.793935775756836
1700006752411643400,-0.3507259202282876,2.3478274469941853,-1.5374208724305032,0.1388925313949585,1.3752667903900146,2.3979005813598637,-22.27472686767578,-60.6469841003418,-5.540487289428711
1700006752421588200,0.1264748279023915,1.9533938293993471,-1.596114761200547,0.0075525948777794,1.3103691339492798,2.204920530319214,-20.174850463867188,-61.10080337524414,-5.458255767822266
1700006752431534300,0.5590303055554628,1.5114508571326732,-1.2974218836136162,-0.1274036318063736,1.3842915296554563,2.0113911628723145,-18.53768920898437,-61.3558235168457,-5.578866958618164
1700006752441479200,0.470908369988203,1.5054758743762968,-0.8630601602561772,-0.2339153289794922,1.46700119972229,1.846276044845581,-17.604156494140625,-61.41519927978516,-5.841020584106445
1700006752451424300,0.0867582459986209,2.143009223282337,-0.9634734221197664,-0.2437325417995453,1.423220157623291,1.7361383438110352,-16.245742797851562,-61.458152770996094,-5.301488876342773
1700006752461369300,0.1423661514520645,2.713465762737393,-1.6144569119684398,-0.1708692759275436,1.1833322048187256,1.706006646156311,-15.136642456054688,-61.61249542236328,-4.759540557861328
1700006752471314200,0.3555623274087905,2.726621596908569,-2.0636535086251797,-0.1143780276179313,0.858053982257843,1.7523094415664673,-13.788063049316406,-61.97118377685547,-4.4977874755859375
1700006752481259300,0.6530033052384853,2.4408137737274167,-2.1546306874930856,-0.1784450411796569,0.8000818490982056,1.8685698509216309,-12.649734497070312,-61.99211120605469,-4.4205169677734375
1700006752491205000,0.9956009371340274,2.286315870454908,-2.199017233969271,-0.447316974401474,1.0160038471221924,2.014508008956909,-11.673141479492188,-62.27214431762695,-4.18499755859375
1700006752501150500,1.254806000071764,2.060326263898611,-2.5091388296738266,-0.8653305768966675,1.22502863407135,2.025447368621826,-10.566909790039062,-62.11222839355469,-4.208915710449219
1700006752511095300,1.636006480475515,1.625699752125144,-2.945188944509625,-1.1676254272460938,0.9969360828399658,1.8926101922988887,-9.401123046875,-62.219482421875,-3.862876892089844
1700006752521040100,2.048530466034263,1.440840028336644,-2.9614515125244854,-1.2556248903274536,0.4769986569881439,1.7987169027328491,-7.734443664550781,-62.530418395996094,-3.372886657714844
1700006752530985500,2.0246607840165494,1.7294073793590068,-2.6212299621105197,-1.2126630544662476,-0.3421470820903778,2.333048820495605,-6.810829162597656,-62.6046142578125,-2.604454040527344
1700006752540931300,0.8000478237651288,2.240011799919605,-2.044525760437548,-1.3546831607818604,-0.5455327033996582,2.480921030044556,-5.6396331787109375,-62.60369110107422,-1.454875946044922
1700006752550876400,1.7828281500317156,1.9209160396426916,-1.5374771326623855,-1.4510406255722046,-0.4025305211544037,2.386939287185669,-4.113677978515625,-62.74396133422852,-0.7734718322753906
1700006752560821200,3.751483992101252,1.0768453881472348,-1.1055331379711628,-1.3666558265686035,-0.1246176362037658,2.2559118270874023,-2.471839904785156,-62.74448776245117,-0.0709609985351562
1700006752570766300,5.596053581905364,0.9624246437191962,-0.3619828985081985,-1.2404015064239502,0.060505885630846,2.148654699325561,-0.6288375854492188,-62.8339958190918,0.79779052734375
1700006752580711400,8.671693199145793,1.2602192572921511,0.8155119348786771,-1.1051028966903689,0.1908712983131408,1.620615005493164,0.7148361206054688,-62.79510116577149,1.7695198059082031
1700006752590656300,13.118576745927331,1.1642091988235712,2.339518176071345,-0.8437303304672241,0.2974659204483032,0.3443067669868469,1.9829788208007808,-62.7041244506836,2.557037353515625
1700006752600602000,17.219149777770042,0.935973859167099,3.376177099780738,-0.6164401173591614,-0.188653290271759,-1.0008864402770996,2.7110519409179688,-62.39096832275391,3.2079315185546875
1700006752610547200,14.77196939162016,0.7641729389160871,2.8978081846535204,-0.5881940722465515,-0.4408085942268371,-1.517897605895996,2.534996032714844,-62.2987060546875,3.9328689575195312
1700006752620492300,6.022222646456957,0.4064396972090006,1.5609686290174722,-0.5575535297393799,-0.3297944068908691,-1.3246283531188965,1.8303909301757808,-62.46237564086914,4.376899719238281
1700006752630437400,-1.2358137148320674,-0.1029606082588434,1.5097237410791218,-0.4303880929946899,-0.1925004422664642,-0.7683640718460083,1.212860107421875,-62.41392135620117,5.203319549560547
1700006752640382200,-5.773316859215497,-0.1458908184468746,2.038965349831432,-0.2243516445159912,-0.0905854105949401,-0.0589127987623214,0.277801513671875,-62.305545806884766,5.385986328125
1700006752650328000,-8.295319554376603,-0.2574012283861637,2.079478854266554,-0.1027740836143493,0.0337983220815658,0.7052367925643921,0.3655471801757812,-62.21697616577149,5.833003997802734
1700006752660273400,-8.795715884655714,-1.1322995643436908,1.117121138303727,-0.1035211980342865,0.2058193236589431,1.3819520473480225,1.3269119262695312,-61.79555892944336,5.724399566650391
1700006752670218200,-7.164893967211246,-1.9550182157307865,-0.266010541701503,-0.1532291024923324,0.4665324091911316,1.7163591384887695,2.447471618652344,-61.75929260253906,6.203594207763672
1700006752680163300,-3.1349957693114874,-2.412936755764484,-1.1658839271027597,-0.1973662078380584,0.7455366253852844,1.4700199365615845,3.655105590820313,-61.450965881347656,6.323757171630859
1700006752690108400,2.698729673637449,-2.7556132981151342,-0.94850001713261,-0.1111293137073516,0.6967123746871948,0.7841176986694336,4.513595581054688,-61.243072509765625,6.344814300537109
1700006752700053200,7.099393613296747,-2.5914029791235924,0.2863916509510949,0.0028661922551691,0.5397096276283264,0.2640697062015533,5.034126281738281,-61.21732711791992,6.384395599365234
1700006752709999400,5.820564932602643,-2.164885539525747,0.8809862775690853,0.0747014954686164,0.2520738542079925,0.1904596835374832,5.172233581542969,-61.2469482421875,6.457206726074219
1700006752719944200,1.286538816680014,-1.6102122601360085,0.4495051876818761,0.0897852405905723,0.0840095654129982,0.3699400424957275,5.314186096191406,-61.104129791259766,6.4852294921875
1700006752729889300,-1.7085530996397136,-1.3470961612343788,-0.3937864787977189,0.1219482421875,0.0790909677743911,0.5835835933685303,6.276191711425781,-61.06675720214844,6.4215087890625
1700006752739834400,-3.013174393238127,-1.1570564044594764,-0.781774208188802,0.1250847578048706,0.1482312828302383,0.6934698224067688,6.2508697509765625,-60.94666290283203,6.116207122802734
1700006752749779200,-2.336615440367162,-0.5771119056910277,-0.9173159204483032,0.0988504886627197,0.2328947633504867,0.7062783241271973,6.787605285644531,-60.96456527709961,6.097705841064453
1700006752759725300,-1.5974752358987927,0.0326040464848279,-1.253169484911114,0.086826242506504,0.2788462042808532,0.6530143618583679,7.481903076171875,-60.8039665222168,6.016452789306641
1700006752769670100,-0.9398942474812269,0.4389174869656562,-1.5739024910010395,0.06230279058218,0.2751446962356567,0.5192552208900452,8.142707824707031,-60.64407730102539,5.908565521240234
1700006752779615200,-0.3664715516969561,0.8985703034460544,-1.7962056641295552,0.0805357247591018,0.2713684439659118,0.376271516084671,8.689170837402344,-60.47087478637695,5.797931671142578
1700006752789560300,-0.4865440382763743,1.3035370054930449,-1.6611391681663692,0.13594651222229,0.2834448218345642,0.3122390210628509,8.900611877441406,-60.41853713989258,5.937541961669922
1700006752799505200,-1.2833601866438984,1.5334984382897614,-1.2842398920878768,0.2041554003953933,0.2855124473571777,0.4071559309959411,9.143424987792969,-60.394676208496094,5.941143035888672
1700006752809450200,-2.0456702542975544,1.207232932513952,-1.074685945091024,0.2134777903556823,0.2598707675933838,0.5328728556632996,9.208976745605469,-60.4957160949707,5.589561462402344
1700006752819396400,-1.6620473690524695,0.6677899554818868,-1.1675062676075845,0.2170460671186447,0.2233477979898452,0.5734400153160095,9.762191772460938,-60.28513717651367,5.356071472167969
1700006752829341200,-0.8962395224109292,0.1158078148722648,-0.9460283663220704,0.197860911488533,0.1105336248874664,0.4731084108352661,10.345741271972656,-60.12928771972656,5.454143524169922
1700006752839286300,-0.1633168772831559,0.0698848526090383,-1.0657777584269643,0.1417767107486724,-0.0352153927087783,0.2042322307825088,10.463470458984377,-59.88811492919922,5.518241882324219
1700006752849231400,0.7062801373958587,-0.0920318024873733,-1.176988600897789,0.186265617609024,0.1336718946695327,0.1216212511062622,10.665420532226562,-59.97039794921875,5.615962982177734
1700006752859176200,-0.2575526195555925,-1.0275275227487086,-0.014122121920064,0.4038975536823272,0.130848154425621,0.1015607193112373,11.243316650390623,-60.035377502441406,5.514751434326172
1700006752869122300,-0.3991843192532658,-2.340336798977852,0.8966388969920575,0.5618621706962585,0.1049209386110305,0.0314332954585552,11.65520477294922,-59.88011932373047,5.091865539550781
1700006752879067100,-0.3547933888629078,-2.303810026091337,0.5580986141959204,0.6327022910118103,0.0505959428846836,-0.07147678732872,11.49462890625,-59.62884521484375,4.642097473144531
1700006752889012200,0.1552849619969725,-1.869094082468748,-0.2250114091739058,0.6439927816390991,-0.0094104018062353,-0.1705562472343444,11.33447265625,-59.758392333984375,4.1740570068359375
1700006752898957300,0.4861003861621022,-2.169479297056794,-0.4317844567479565,0.6307733058929443,-0.0250285379588603,-0.3562340140342712,11.105712890625,-59.77964019775391,4.0504302978515625
1700006752908902100,0.9388616895630956,-2.140591640746593,-0.0100332086386159,0.4643779397010803,0.0177170634269714,-0.6449025869369507,11.27397918701172,-59.58625030517578,3.808879852294922
1700006752918847200,1.631596993470192,-1.171594632899761,-0.5093952274339273,0.2399537116289138,-0.1711292564868927,-0.8074219226837158,11.113121032714844,-59.491607666015625,3.518646240234375
1700006752928793000,0.9558221767142414,0.2481879943609237,-0.7737684502571821,-0.0298372935503721,-0.4826557338237762,-0.833026647567749,10.437728881835938,-59.58308792114258,3.3930435180664062
1700006752938738400,-0.4127466883987188,1.3522294324696065,-0.8456912384346127,-0.0248607397079467,-0.546859085559845,-0.9150734543800354,10.41291046142578,-59.64750671386719,3.3832321166992188
1700006752948683300,0.6435267441019416,1.6583441306203603,0.4934563384154811,0.1454963535070419,-0.6263222098350525,-0.9834423661231996,9.968879699707031,-59.72867202758789,3.5397491455078125
1700006752958628000,0.2501008422449231,0.6345867740601301,1.4902316896237433,0.3171379864215851,-0.7813082337379456,-0.969143569469452,9.175209045410156,-59.878868103027344,3.5450515747070312
1700006752968572700,0.0516632594808936,0.0946504605531692,0.603921732813865,0.3680834472179413,-0.8758786916732788,-0.8865147233009338,8.448837280273438,-59.72405624389648,3.475452423095703
1700006752978517500,0.6966790730968118,0.6142354754269123,-0.8935862314231693,0.3303195536136627,-0.8772652745246887,-0.8234145641326904,8.258598327636719,-59.870643615722656,3.020957946777344
1700006752988463600,0.4637386244893073,1.3313789521425965,-1.9425364814288912,0.2628752887248993,-0.8604292869567871,-0.7318151593208313,8.127586364746094,-59.89313125610352,3.148162841796875
1700006752998408400,-0.1547425256833434,1.818656857651472,-2.131296573656797,0.1780196726322174,-0.7796164155006409,-0.6081153750419617,7.611465454101562,-59.943336486816406,3.3016929626464844
1700006753008353800,-0.7319146371290087,2.080057969328761,-1.8405913338229056,0.1089689657092094,-0.7010251879692078,-0.5224571824073792,7.192550659179688,-59.67693328857422,3.266498565673828
1700006753018298600,-0.5547324622310698,2.1503981644898653,-1.3168116437382995,0.0546920076012611,-0.7050312161445618,-0.509294331073761,6.799674987792969,-59.72895812988281,3.32180404663086
1700006753028243500,-0.1037748472511768,1.8877315629214049,-1.0604296023320403,-0.0260904524475336,-0.7323331236839294,-0.5153966546058655,6.6570587158203125,-59.75347137451172,3.560733795166016
1700006753038189600,-0.0918133374311029,1.6884709733366965,-1.0032723485447466,-0.1094211190938949,-0.7176088094711304,-0.5471628904342651,6.277244567871094,-59.898250579833984,3.778362274169922
1700006753048134700,0.092638536208868,1.6903934658318758,-0.9035979223497212,-0.221543937921524,-0.703895628452301,-0.5478755831718445,6.092979431152344,-59.75503921508789,4.005142211914063
1700006753058079500,0.1928651894591748,1.5000474195867777,-0.7620737746797501,-0.2946342825889587,-0.724861204624176,-0.53922438621521,5.775436401367188,-59.75357818603516,4.204029083251953
1700006753068024600,-0.0796036980688571,1.4091601109594103,-0.4569152447426691,-0.3355447053909302,-0.761034369468689,-0.5401408076286316,5.288108825683594,-59.78850936889648,4.817829132080078
1700006753077969700,0.0159098090544342,1.3520271878957748,-0.3839794070651754,-0.3570530116558075,-0.7525772452354431,-0.5313832759857178,5.156295776367188,-59.64435958862305,5.149635314941406
1700006753087914800,-0.0300230900809168,1.1101625513374804,-0.7367366504579782,-0.3856031596660614,-0.7661612629890442,-0.5390145778656006,4.9077911376953125,-59.67482376098633,5.404941558837891
1700006753097860600,0.1203217851653695,0.9791127436697482,-0.9344649889741092,-0.3691848218441009,-0.797294557094574,-0.5504009127616882,4.914642333984375,-59.45710754394531,6.121265411376953
1700006753107805400,0.0628960166350007,0.8027776871204376,-0.5112969694020226,-0.2838377058506012,-0.809170663356781,-0.5599949955940247,4.754203796386719,-59.593048095703125,6.320423126220703
1700006753117750500,-0.0071510407984256,0.6237058990836143,-0.171357396000903,-0.2446034997701645,-0.8496332168579102,-0.5931016802787781,4.027801513671875,-59.4824104309082,6.680885314941406
1700006753127695600,0.3385387118935585,0.3654804948329925,-0.3140160458598285,-0.2348075807094574,-0.8517802357673645,-0.6548414826393127,3.8127593994140634,-59.55250549316406,7.011543273925781
1700006753137640700,0.5670272956587374,0.4356675452589988,-0.691970310883969,-0.2748182713985443,-0.8551650047302246,-0.6884085536003113,3.4119873046875,-59.39854049682617,7.312610626220703
1700006753147585500,0.4722878416478633,0.4157558070868253,-1.0662605004426091,-0.3016781210899353,-0.8393269181251526,-0.6937811970710754,2.872871398925781,-59.33799743652344,7.556076049804687
1700006753157531400,0.1982726014606654,0.601089578127861,-1.051740172985196,-0.3139942288398742,-0.769778847694397,-0.7041977047920227,2.403480529785156,-59.43350601196289,8.191993713378906
1700006753167476700,0.0797067200519144,0.6520248155951499,-0.8149844769384712,-0.274673730134964,-0.7001297473907471,-0.7317382097244263,1.8857345581054688,-59.443115234375,8.32568359375
1700006753177421600,0.113613373567909,0.6707657564222812,-0.4616516256147995,-0.2437086403369903,-0.6487774848937988,-0.7552081346511841,1.7153167724609375,-59.37080383300781,8.581062316894531
1700006753187366400,0.3692269878849387,0.3887117328166961,-0.2732191579060629,-0.2140761911869049,-0.6078444719314575,-0.7503923773765564,1.3677215576171875,-59.07067489624024,8.817340850830078
1700006753197311700,0.4879296474158763,0.1346294197201728,-0.3849871958682313,-0.159122809767723,-0.5818182826042175,-0.7492415308952332,1.1884002685546875,-58.80797958374024,9.076045989990234
1700006753207257600,0.6310089155733585,0.0850233850300311,-0.5175221275271847,-0.1190467625856399,-0.5612890720367432,-0.725557804107666,0.6863327026367188,-58.82994079589844,9.399520874023438
1700006753217202700,0.5425099633872509,0.0116910223156213,-0.8320840802993625,-0.1179673224687576,-0.6074186563491821,-0.6216807961463928,0.170867919921875,-58.86842346191406,9.883216857910156
1700006753227147500,0.0505447037797421,-0.1368178696751594,-1.4320220772393046,-0.147447183728218,-0.5661327242851257,-0.4773702025413513,0.23602294921875,-58.67681884765625,10.0927734375
1700006753237092600,-0.1161900921881198,-0.2396095511078834,-1.7251510370887817,-0.1883108913898468,-0.5189765691757202,-0.347808301448822,0.0487442016601562,-58.93689727783203,10.373157501220703
1700006753247037700,0.3421488652147352,-0.4615075044363737,-1.7632514890328048,-0.2049013376235962,-0.4753609299659729,-0.2327256351709365,-0.2366409301757812,-58.61724472045898,10.642341613769531
1700006753256983600,0.7565772230900824,-1.028656819039583,-1.444104729221016,-0.2041104733943939,-0.4589960873126983,-0.114696130156517,-0.4687728881835937,-58.4073486328125,11.108062744140623
1700006753266928600,0.94857483593449,-1.6390502320855855,-1.0510191652342675,-0.1676739007234573,-0.4319175779819488,0.0031602000817656,-0.7852249145507812,-58.38672256469727,11.442634582519531
1700006753276873500,0.987940193247795,-2.057637463206053,-0.4636631846329197,-0.1051855012774467,-0.4463894665241241,0.1094573438167572,-0.3950576782226562,-58.22962188720703,11.53213882446289
1700006753286818600,0.7532850496768951,-2.3754759168982504,-0.0488452611844055,-0.0781144723296165,-0.4963935315608978,0.2258220314979553,-0.4776992797851562,-58.10269165039063,11.92251205444336
1700006753296763600,0.2072667859077453,-2.5925679312497376,-0.2406326288116164,-0.0811341553926467,-0.5203729867935181,0.3358114063739776,0.1136016845703125,-58.24005126953125,11.949398040771484
1700006753306708500,-0.0177075061261653,-2.8018758675962685,-0.4970278402267024,-0.1089261025190353,-0.5675053596496582,0.3401148319244385,0.357330322265625,-57.9788703918457,12.261608123779297
1700006753316654600,0.3019569939494133,-3.202001559352875,-0.7366836050964891,-0.1200765594840049,-0.5502387285232544,0.2154821902513504,0.8727340698242188,-57.832305908203125,12.653141021728516
1700006753326599700,1.066857589552924,-3.850448516461253,-1.068635851271823,-0.1469673067331314,-0.512772262096405,0.0555577687919139,0.720458984375,-57.80653762817383,12.98037338256836
1700006753336544500,1.404061180385202,-4.6058659019917245,-1.5374159039944408,-0.4226897656917572,0.2712883055210113,0.350336879491806,1.008087158203125,-57.723052978515625,13.46804428100586
1700006753346489600,-3.207178085207939,-5.6116743448853486,-4.505434519949556,-0.3550646603107452,-0.318501204252243,0.1527604460716247,1.5203933715820312,-57.60874557495117,13.7249755859375
1700006753356434700,2.697206117331981,-3.766719262894988,-1.529744930975139,-0.54010009765625,-0.3376769125461578,0.001286064274609,1.64892578125,-57.67031097412109,13.934844970703123
1700006753366379500,2.3307214138925074,-4.72922573967874,-1.366025171979517,-0.6200149059295654,-0.3792078495025635,-0.0117562338709831,1.664337158203125,-57.62038040161133,14.244571685791016
1700006753376325600,-0.6832452987670898,-6.002216800260544,-2.172417980857193,-0.61241215467453,-0.2828420400619507,-0.0857413858175277,1.3429183959960938,-57.42861175537109,14.653217315673828
1700006753386270500,-0.1505411284707486,-6.477738217002153,-1.113064556389302,-0.5448277592658997,-0.1966552287340164,-0.101727545261383,1.318389892578125,-57.4862060546875,15.04916763305664
1700006753396215600,-0.6919431306160986,-6.164428054389357,-0.3044792059034109,-0.4822942316532135,-0.1852403730154037,-0.0864438861608505,0.8345870971679688,-57.50737762451172,15.750667572021484
1700006753406160600,-1.6312345898985865,-5.311776037031412,0.1258591071568429,-0.4299191832542419,-0.0877524241805076,0.0309509187936782,0.8616485595703125,-57.530269622802734,16.138938903808594
1700006753416105500,-3.2809213668107984,-4.391453335982561,0.7743235999219119,-0.3742676973342895,0.0321335382759571,0.119380347430706,0.9234619140625,-57.46163940429688,16.24584197998047
1700006753426051600,-4.1244729628682135,-3.1231670920908448,1.519180428471416,-0.3365046083927154,0.1634055376052856,0.0487653091549873,0.94970703125,-57.42920303344727,16.40865707397461
1700006753435996400,-3.1533108859419823,-1.6984353179901837,1.76183373118937,-0.3211472034454345,0.1896359771490097,-0.001189992763102,0.9662399291992188,-57.49993133544922,16.629192352294922
1700006753445941800,-3.607967209309339,-0.9711427877038716,1.6667656297460198,-0.2870121598243713,0.200239896774292,-0.0252327434718608,1.4641647338867188,-57.49684143066406,16.804786682128906
1700006753455886600,-3.858300399005413,-0.3081131784915923,1.7694699251562356,-0.2498925626277923,0.2100858390331268,-0.0942243784666061,1.5565872192382812,-57.617130279541016,16.92763900756836
1700006753465831400,-3.0790976487398147,0.4781044189721345,1.7274498155504463,-0.226120114326477,0.2382916212081909,-0.1637454032897949,1.4884262084960938,-57.52802658081055,16.751651763916016
1700006753475776800,-2.6169980236291885,0.9178601103276014,1.2186280406229195,-0.1790381819009781,0.3177200257778168,-0.2109931111335754,1.54608154296875,-57.60349655151367,16.893577575683594
1700006753485722600,-2.40585819568038,1.2959861517220734,0.9247637522362172,-0.0685537382960319,0.4327182471752167,-0.2071957141160965,1.77374267578125,-57.822021484375,16.84613800048828
1700006753495667700,-2.602489021283388,1.7067817060530184,1.048225662058219,-0.0314665213227272,0.4223175942897796,-0.1890481114387512,1.6360015869140625,-57.68522644042969,16.874488830566406
1700006753505612500,-1.7486697137117384,1.2745716077715157,0.1679948059663176,0.0614556968212127,0.4216065406799316,-0.1440729051828384,1.94635009765625,-57.996883392333984,16.786312103271484
1700006753515557600,-1.9136299742877485,1.2506067948162556,0.3765723822116851,0.1190708875656127,0.4147001802921295,-0.1394267082214355,1.5117034912109375,-58.165225982666016,16.794158935546875
1700006753525502700,-1.6423603795468806,1.232845512676239,0.3976471728138625,0.1403655111789703,0.3934585452079773,-0.1595173329114914,1.638702392578125,-58.35122680664063,16.645687103271484
1700006753535447600,-1.1037538533389568,1.0125707766354084,0.1452864958781748,0.1400899142026901,0.3273023068904876,-0.219788521528244,1.3100509643554688,-58.33125686645508,16.724498748779297
1700006753545393700,-0.6258918648205697,0.998278047388792,-0.026887714664638,0.142895296216011,0.2313760370016098,-0.2933748662471771,1.2117080688476562,-58.193302154541016,16.71288299560547
1700006753555338500,-0.1900723438702523,1.1942279049903153,-0.0694477763660252,0.1695472747087478,0.139517679810524,-0.3461853861808777,1.3124771118164062,-58.662506103515625,16.258235931396484
1700006753565283600,0.0167266783952713,1.4165402843385937,0.0212343650780618,0.212082490324974,0.0073058381676673,-0.3809532225131988,1.416748046875,-58.586524963378906,16.22350311279297
1700006753575228700,0.2525847680151462,1.555515624308586,-0.0108704266477376,0.2077265828847885,-0.050826322287321,-0.3313410878181457,0.9047470092773438,-58.6865463256836,15.899749755859377
1700006753585173500,-0.1194645838141441,1.6592776120781898,-0.4928670307528227,0.2580012083053589,-0.1211212575435638,-0.3023973107337951,0.7006607055664062,-58.76572036743164,15.5242919921875
1700006753595119600,-0.0585994884848594,1.772262770745158,-0.1022499027062207,0.2878378033638,-0.1873038113117218,-0.3007208108901977,0.3776702880859375,-58.66512298583984,15.188850402832031
1700006753605064700,0.8439080813448876,1.838424803438783,-0.0495506512410938,0.3073286414146423,-0.2648286819458008,-0.2757185101509094,0.1007461547851562,-58.61685180664063,15.231056213378906
1700006753615009500,0.3246772867362946,1.694391595557332,-0.1586925054181367,0.3075985312461853,-0.282751053571701,-0.2702049016952514,0.047637939453125,-58.9223747253418,15.21915054321289
1700006753624954600,0.2986696428418159,1.8436340625196692,-0.3000098054043948,0.310308575630188,-0.2714448571205139,-0.270049899816513,-0.1251602172851562,-58.97117614746094,14.85226821899414
1700006753634899700,0.2343570374071598,1.95501120146811,-0.2542560622282326,0.3113957345485687,-0.2513145208358764,-0.2695445716381073,-0.6751480102539062,-59.173431396484375,14.57876205444336
1700006753644844500,0.0950759194236248,2.085965732067823,-0.1240774844370782,0.3076207041740417,-0.2283266335725784,-0.266504555940628,-0.7129974365234375,-59.05207443237305,14.498977661132812
1700006753654790700,-0.0129578273810446,2.131465500482917,-0.1030066393576562,0.30044886469841,-0.2028063088655471,-0.2817679047584533,-0.728057861328125,-59.23614883422852,14.174640655517578
1700006753664735500,-0.0338425753038376,2.136892201706767,-0.1226890257533639,0.2965103089809418,-0.1672824025154113,-0.2820819020271301,-0.6820297241210938,-59.431243896484375,14.143775939941406
1700006753674680800,-0.0607259791195392,2.281563707491755,-0.1764593039834871,0.3056592047214508,-0.1159304305911064,-0.2635379731655121,-1.0543212890625,-59.365196228027344,13.580360412597656
1700006753684625700,-0.18234160348773,2.4413702385663987,-0.1445211009962484,0.2984449565410614,-0.0529666431248188,-0.2440857142210006,-1.02777099609375,-59.42750549316406,13.676414489746094
1700006753694570500,-0.3432171520333737,2.549991356804967,-0.2619070519054308,0.2750681340694427,-0.0196558386087417,-0.2408214211463928,-1.0193023681640625,-59.57098007202149,13.61056137084961
1700006753704515600,-0.2492961747985333,2.6042005013763903,-0.3796545661360025,0.2510389685630798,-0.0625859946012497,-0.2364064306020736,-1.1761016845703125,-59.25276565551758,13.48223114013672
1700006753714461400,-0.1319032096266746,2.659856337624788,-0.3493940505700185,0.2344838976860046,-0.1380052417516708,-0.2274744659662246,-1.2956161499023438,-59.3272705078125,13.447891235351562
1700006753724406500,-0.1289455653974786,2.769002356520295,-0.3692816772142425,0.2258398085832595,-0.1947569400072097,-0.2137317657470703,-1.1795578002929688,-59.35130310058594,13.137775421142578
1700006753734351600,-0.2395312617072835,2.875426841497421,-0.4074360513025895,0.2253935933113098,-0.2297211438417434,-0.1769373416900634,-1.01373291015625,-59.4142951965332,12.856510162353516
1700006753744296400,-0.5718681598186492,2.907866637331247,-0.4547759311590343,0.2291451841592788,-0.2282619923353195,-0.1212711483240127,-1.0890274047851562,-59.55611801147461,12.83432388305664
1700006753754241800,-0.8869523463666439,2.8452146585851907,-0.5887309222163633,0.2359315454959869,-0.1969427466392517,-0.0656977295875549,-1.3643646240234375,-59.48461532592773,12.656944274902344
1700006753764187600,-0.9602736031651496,2.739438408383727,-0.7337154029406606,0.2270038276910781,-0.1676511615514755,-0.0315743833780288,-1.4814453125,-59.46126174926758,12.865299224853516
1700006753774132500,-0.8905787201702594,2.498800683271885,-0.8397485505126416,0.2157951146364212,-0.1452835500240326,-0.0361180007457733,-1.57110595703125,-59.43112564086914,12.921859741210938
1700006753784077600,-0.5595101249616593,2.2601100005745884,-0.7143920591156929,0.2253928780555725,-0.1528636962175369,-0.098021313548088,-1.6733856201171875,-59.34651947021485,12.741676330566406
1700006753794022700,-0.1388624541800469,2.056193109616637,-0.4472444031430408,0.24361552298069,-0.1743523627519607,-0.1685731261968612,-1.62872314453125,-59.17546463012695,12.765323638916016
1700006753803967700,-0.0460883088927716,1.9025252274274824,-0.2873146840801462,0.252569317817688,-0.2021616101264953,-0.2132101058959961,-1.6653213500976562,-59.472991943359375,12.631160736083984
1700006753813912600,-0.2869605003476143,1.7424650138527151,-0.3215510444745421,0.2409911602735519,-0.2184730768203735,-0.229190707206726,-1.4806365966796875,-59.22949600219727,12.568775177001951
1700006753823858400,-0.553867150638625,1.6077940930783747,-0.2278490802852436,0.208662524819374,-0.2239898145198822,-0.2634719908237457,-1.5967025756835938,-59.04630661010742,12.899185180664062
1700006753833803800,-0.4934206460475921,1.4157248763024806,0.002531363374833,0.1627071350812912,-0.2107728123664856,-0.3391702771186828,-1.9267349243164065,-58.96816635131836,12.762123107910156
1700006753843748600,-0.1814320874273776,1.0894137778192758,0.2471637110807932,0.1091773137450218,-0.1831917762756347,-0.4284293055534363,-2.4264450073242188,-59.027339935302734,12.839115142822266
1700006753853693400,-0.0371603946149349,0.4972819976508617,0.4460992516959086,0.0506987497210502,-0.1104948818683624,-0.5360273122787476,-2.5291519165039062,-59.06661224365234,12.948673248291016
1700006753863638500,0.321767609834671,-0.3862327754825353,0.6262494460865855,0.0262117832899093,-0.0672185122966766,-0.5829780697822571,-2.7486801147460938,-58.859283447265625,13.131072998046877
1700006753873584400,0.4397100986480712,-1.3746721504241228,0.8305198266573249,0.0278867818415164,-0.0174427144229412,-0.5461184978485107,-3.346748352050781,-58.66659927368164,13.221660614013672
1700006753883529700,0.379316127961874,-2.629588040611148,1.074810667449236,0.0497880838811397,-0.0186161026358604,-0.4534202814102173,-3.670845031738281,-58.44609832763672,13.283390045166016
1700006753893474600,0.8030056506574154,-4.04853713965714,1.328290922999382,0.1076649129390716,-0.0595045387744903,-0.3568120002746582,-3.9124679565429688,-58.24298477172852,13.551700592041016
1700006753903419400,1.3209236091017722,-5.538012896347046,1.595324925997108,0.1691604852676391,-0.1169952675700187,-0.2503249645233154,-3.595497131347656,-58.23741912841797,13.472488403320312
1700006753913364700,1.2310521995186805,-7.05843207283318,1.5038516341753303,0.2887079417705536,-0.1761347502470016,-0.1230442449450492,-3.6641693115234375,-58.18670272827149,13.30976104736328
1700006753923309600,0.8469710491120814,-8.066596138942241,1.32909157185778,0.4575531482696533,-0.1867019087076187,0.0532908476889133,-3.8338546752929688,-58.078269958496094,13.354869842529297
1700006753933255700,0.7212064883708953,-7.919186148104071,1.3237170392125843,0.631028950214386,-0.1711311340332031,0.1657888442277908,-3.6972503662109375,-58.003868103027344,13.267333984375
1700006753943200500,0.9985866749465464,-7.240701195606589,1.1963250964652743,0.768281877040863,-0.0420160219073295,0.1456979513168335,-3.8128814697265625,-57.8806266784668,12.701950073242188
1700006753953145600,1.343650989216566,-6.7519882888585325,0.5817111431147903,0.6914125084877014,0.1212923005223274,0.0759724676609039,-3.815521240234375,-58.143829345703125,12.536754608154297
1700006753963090700,1.0425883137583731,-7.007005836978554,-0.9282762904018164,0.4368513226509094,0.0971968248486518,0.1016285642981529,-3.8369293212890634,-58.073089599609375,12.047630310058594
1700006753973035800,0.1229413017476908,-7.485957812690734,-1.496478913450241,0.2845379412174225,0.0915627628564834,0.1493317633867263,-3.348846435546875,-58.135292053222656,11.473854064941406
1700006753982980600,-0.288701243067719,-6.689838998937606,-0.3629082331921905,0.2568082809448242,0.1236911341547966,0.1752416640520095,-3.291084289550781,-58.13528060913086,11.21294403076172
1700006753992926700,-0.4021826242864131,-5.196524686998129,0.926915523442626,0.2647880017757416,0.1376574784517288,0.178569033741951,-3.078804016113281,-58.05872344970703,10.967456817626951
1700006754002871800,-0.9252619110167026,-4.123237283593416,1.3653145394921302,0.2787882387638092,0.1894048303365707,0.1945453435182571,-3.0539627075195312,-58.29738998413086,10.640758514404297
1700006754012816600,-1.6061434032618995,-3.350629109287262,0.8597282393544912,0.3105470538139343,0.2459043711423874,0.2123291492462158,-3.0317840576171875,-58.43592071533203,10.575675964355469
1700006754022761700,-2.119215675240755,-2.5455121655642983,0.3389050975205376,0.3824491798877716,0.2719753980636596,0.2930405139923095,-3.313880920410156,-58.512672424316406,10.15970230102539
1700006754032706800,-2.7542683132469654,-1.5553431903511286,0.1969376630624756,0.4150019586086273,0.2916902601718902,0.3718304634094238,-2.7595977783203125,-58.70191192626953,9.820602416992188
1700006754042653000,-2.9527532422840594,-0.8218114734143018,-0.13971680598706,0.381591796875,0.2651494443416595,0.4300527572631836,-2.3411407470703125,-58.76845550537109,9.325714111328123
1700006754052597800,-2.7409587498188017,-0.4108282875567674,-0.8641835382629185,0.3463014960289001,0.1886656582355499,0.5048844218254089,-2.1781463623046875,-59.027774810791016,8.820747375488281
1700006754062542600,-2.7699825997292997,0.3627461014330387,-1.1275156910680233,0.3078654110431671,0.1025773659348487,0.5597481727600098,-1.7437591552734375,-59.25471115112305,8.769542694091797
1700006754072488000,-2.793440632206201,1.178029049861431,-1.153195198986679,0.2774372696876526,0.023190714418888,0.5633957982063293,-1.96685791015625,-59.32611846923828,8.148597717285156
1700006754082432800,-2.788828754496574,1.703002187514305,-1.1113069721322506,0.2442068755626678,-0.0340225100517272,0.5449371933937073,-1.740203857421875,-59.3829460144043,7.655384063720703
1700006754092377600,-2.674551217931509,2.0413257953524586,-1.09169984292984,0.2194773852825164,-0.0917118787765502,0.5137580037117004,-1.220703125,-59.57622146606445,7.236553192138672
1700006754102323700,-2.399693827831745,2.2693016072899104,-1.0226365358367562,0.2024073153734207,-0.1263920962810516,0.4484170973300934,-1.18939208984375,-59.57447814941406,7.048492431640625
1700006754112268800,-1.9695313097298144,2.311402965438366,-0.949023310354352,0.1886627227067947,-0.1700769662857055,0.3793585002422333,-0.6448211669921875,-59.57395935058594,6.97265625
1700006754122214000,-1.4416636196792123,2.2142010668367145,-0.973985536849126,0.1629123538732528,-0.2207377552986145,0.2983129322528839,-0.4776382446289062,-59.68409729003906,6.710670471191406
1700006754132158700,-1.0479610928379,2.004580995801091,-0.9456666934028268,0.1557972729206085,-0.2642552852630615,0.2166017442941665,-0.2929916381835937,-59.64816665649414,6.302261352539063
1700006754142103600,-0.951171355233714,1.8167197521090503,-0.7499868118491023,0.1469414681196212,-0.3082019686698913,0.1497872918844223,-0.32550048828125,-59.8852653503418,5.920295715332031
1700006754152049000,-0.8050747120164334,1.6028806020736694,-0.5686668795593083,0.1310714781284332,-0.3452503979206085,0.0906716510653495,-0.4636993408203125,-60.0413932800293,5.664600372314453
1700006754161994800,-0.6683189477920531,1.4275380636930466,-0.4958383747138082,0.1195908486843109,-0.3653079867362976,0.041387990117073,-0.33917236328125,-60.13762664794922,5.5691680908203125
1700006754171939800,-0.5927204667765646,1.332800509378314,-0.441219334167242,0.1050806120038032,-0.3749246597290039,-0.0008516055531799,-0.2798843383789062,-59.973331451416016,5.259479522705078
1700006754181884700,-0.427535676729679,1.252050563883781,-0.3785346952605992,0.0901426747441291,-0.3649995923042297,-0.0344391278922557,0.2789688110351562,-59.962833404541016,4.957069396972656
1700006754191829800,-0.2626701086997985,1.254150751033425,-0.334644480933994,0.0682741850614547,-0.3493056297302246,-0.0708149522542953,-0.0213851928710937,-60.11806106567383,4.777385711669922
1700006754201774800,0.0178770174741744,1.212415888109803,-0.2305969542212784,0.0520286411046981,-0.331341803073883,-0.1278809010982513,-0.089019775390625,-60.23397064208984,4.735382080078125
1700006754211720700,0.4846435384172946,1.1749971348196266,-0.1323576753959059,0.0261352397501468,-0.3277001082897186,-0.1795014888048172,-0.4049911499023437,-60.164947509765625,4.546794891357422
1700006754221665800,0.7471756268858909,1.1836252624332904,-0.1286895082771778,-0.0211348049342632,-0.3428644239902496,-0.214241087436676,-0.6571578979492188,-60.26525115966797,4.342689514160156
1700006754231611000,0.8069371448874473,1.4505337393552065,-0.0955496744152158,-0.0565981641411781,-0.3708563446998596,-0.2369772493839264,-0.993927001953125,-60.2140998840332,4.205249786376953
1700006754241555700,0.7893219932198524,1.7612246593803167,0.0453389518301933,-0.0784214362502098,-0.4058569073677063,-0.2407078146934509,-1.0635528564453125,-60.0873908996582,4.279777526855469
1700006754251500800,0.6416765131253749,2.068812352693081,0.0858417887408286,-0.0960560739040374,-0.4363339841365814,-0.2265349775552749,-1.5762176513671875,-60.32778549194336,3.971359252929688
1700006754261446000,0.403225411337614,2.364500933897495,0.0465339337684214,-0.1208362579345703,-0.4322785139083862,-0.1902656555175781,-1.74786376953125,-60.40122604370117,4.102413177490234
1700006754271391700,0.1296983930587768,2.7244670492231844,-0.0763273798119276,-0.1391187012195587,-0.40620157122612,-0.1338210850954055,-1.8470001220703125,-60.34400177001953,4.1454010009765625
1700006754281336800,-0.101456706501916,3.0362621310979128,-0.1269946139927953,-0.1573826521635055,-0.3816594779491424,-0.0770384967327117,-2.071762084960937,-60.32550048828125,4.131217956542969
1700006754291281700,-0.2046704127389937,3.224382317987084,-0.124050377234444,-0.1744371950626373,-0.3760600388050079,-0.0395872220396995,-1.8398208618164065,-60.50555419921875,4.200351715087891
1700006754301226800,-0.1058206007998436,3.4032992077231405,-0.0835830134959891,-0.1929552257061004,-0.3917441964149475,-0.0298123564571142,-2.040000915527344,-60.649444580078125,4.241664886474609
1700006754311171800,0.047696913133189,3.588422550883889,0.0088828695597127,-0.2017917186021804,-0.4110621511936188,-0.0438101254403591,-1.9209976196289065,-60.56027603149414,4.480484008789063
1700006754321116700,0.1204055179260671,3.778167708626389,0.0859704200891777,-0.2173014432191848,-0.4205648303031921,-0.0647100806236267,-1.603057861328125,-60.50969314575195,4.585472106933594
1700006754331062800,0.045081689133495,3.963885510548949,0.0535755228430032,-0.2374860197305679,-0.4198940098285675,-0.0817279145121574,-2.16632080078125,-60.61945724487305,4.686676025390625
1700006754341007600,-0.1348725077610462,4.130307660371065,-0.0335768005071207,-0.2558008432388305,-0.3931825160980224,-0.1087739169597625,-2.0393218994140625,-60.5294075012207,5.049369812011719
1700006754350953000,-0.1868307681331411,4.220763591843843,-0.0673536536309868,-0.2775390744209289,-0.3594595789909363,-0.1466185897588729,-2.0371322631835938,-60.3994026184082,5.072002410888672
1700006754360897800,-0.0911107055870816,4.193584493017196,-0.0839092863082885,-0.2959308624267578,-0.3151536583900451,-0.1976394355297088,-2.101844787597656,-60.31804656982422,5.539470672607422
1700006754370842600,0.0075555299460887,4.027967229837179,-0.0510459678327664,-0.3091163337230682,-0.2712864875793457,-0.2596709132194519,-2.3796920776367188,-60.39247131347656,5.455177307128906
1700006754380788700,0.0619206687968224,3.726290806394815,0.0047246173691004,-0.328105479478836,-0.2267451137304306,-0.3258387446403503,-2.816123962402344,-60.40884017944336,5.828845977783203
1700006754390733800,0.1119253839483484,3.296590060585737,0.0577742531744763,-0.343276709318161,-0.2117492109537124,-0.3913691639900207,-2.692665100097656,-60.28744125366211,6.345867156982422
1700006754400679000,0.1910065559804439,2.8006974714666604,0.1455099659031257,-0.3640347123146057,-0.2272799611091613,-0.4433588683605194,-3.1702194213867188,-60.12538146972656,6.1973876953125
1700006754410623700,0.0921626623254269,2.1975977225601677,0.087443104723934,-0.3828100264072418,-0.2315289378166198,-0.4798234105110168,-3.334014892578125,-60.15968322753906,6.698451995849609
1700006754420568800,0.0992916008898988,1.530921865800023,-0.0762927103573456,-0.4034660160541534,-0.19744873046875,-0.5295360684394836,-3.631446838378906,-60.00748825073242,7.100444793701172
1700006754430514000,0.1142647136161103,0.8934475536048412,-0.2672379828709177,-0.4118562340736389,-0.1912814527750015,-0.537205696105957,-4.056396484375,-59.86734771728516,7.679561614990234
1700006754440459800,-0.0721486693551763,0.1570715531527996,-0.4307246089641005,-0.409607470035553,-0.1905701160430908,-0.5335214734077454,-4.183876037597656,-59.79584884643555,8.05584716796875
1700006754450404900,-0.0188905601645819,-0.4682990642726421,-0.5161862392809242,-0.4107885658740997,-0.2477858066558838,-0.5021890997886658,-4.540382385253906,-59.7056884765625,8.27389144897461
1700006754460349700,0.2228466140891425,-0.9421545936286448,-0.6684965693812817,-0.3835894465446472,-0.3215234279632568,-0.4379478394985199,-4.659149169921875,-59.44588470458984,8.583786010742188
1700006754470294800,0.231700988206733,-1.3819067778527736,-0.7916542355597018,-0.3567705452442169,-0.3854599893093109,-0.3693483471870422,-5.002044677734375,-59.538330078125,9.121177673339844
1700006754480239900,0.3848433669507503,-1.8155694130301476,-1.057759725535661,-0.3400922417640686,-0.4429648220539093,-0.321837306022644,-5.218818664550781,-59.38875579833984,9.61933135986328
1700006754490185700,0.7341174078702927,-2.2394594267338515,-1.4598060100913046,-0.3228691518306732,-0.499437153339386,-0.2822839617729187,-5.635124206542969,-59.06093597412109,10.014633178710938
1700006754500130600,0.8316250114202499,-2.5381547885388134,-1.8321208809889853,-0.2899154722690582,-0.5604179501533508,-0.2122593373060226,-5.6499786376953125,-58.84212493896485,10.06441879272461
1700006754510076000,0.5308826539576054,-2.741821504127979,-2.208313616233319,-0.2583940327167511,-0.6302958130836487,-0.1123464554548263,-5.810958862304688,-59.06087112426758,10.53900146484375
1700006754520020700,0.0869441239595413,-3.0283079572230576,-2.577357502636313,-0.2157879769802093,-0.6953920125961304,-0.0230530686676502,-5.811653137207031,-59.00401306152344,10.794292449951172
1700006754529965800,0.0334802447974681,-3.3055279848009347,-2.8770149874716995,-0.1756780594587326,-0.7506595849990845,0.0527324117720127,-5.857925415039063,-59.111934661865234,10.840927124023438
1700006754539911000,0.105413846629858,-3.5818472641468047,-3.0576831047892568,-0.140431135892868,-0.8103295564651489,0.1224774122238159,-6.0313720703125,-58.98318862915039,11.375328063964844
1700006754549856800,0.1299403851211071,-3.658838733890653,-2.9991973058119417,-0.0993284657597541,-0.8427796363830566,0.1851270496845245,-5.9983978271484375,-58.99317932128906,11.521202087402344
1700006754559801900,0.2782429408848285,-3.65127209802866,-2.635195651359856,-0.0580667778849601,-0.86299729347229,0.2256315946578979,-6.085807800292969,-59.05071258544922,11.574146270751951
1700006754569746700,0.606706833487749,-3.5660452993810177,-2.147906932196021,-0.040992647409439,-0.8826255798339844,0.2834916114807129,-6.158103942871094,-59.27593231201172,11.632038116455078
1700006754579691800,0.7398574128270149,-3.586585398584604,-1.7964692835018037,-0.0438781827688217,-0.9087738394737244,0.3183824717998504,-6.150299072265625,-59.384063720703125,11.637828826904297
1700006754589636900,0.7641828757882118,-3.77005337575376,-1.4621847219213842,-0.0542414709925651,-0.9066028594970704,0.3088855743408203,-6.2176361083984375,-59.4738655090332,12.061378479003906
1700006754599581700,0.711882195186615,-3.899143866047263,-1.0719419070798903,-0.0734641700983047,-0.8761142492294312,0.2877669930458069,-6.157417297363281,-59.7392578125,11.99553680419922
1700006754609527800,0.3776128311753273,-3.79444839681983,-0.7563555431634187,-0.0940217748284339,-0.8268426060676575,0.2764210402965545,-5.828048706054688,-59.87226486206055,12.135700225830078
1700006754619472600,-0.1974596776425838,-3.517166409921646,-0.3632263226980343,-0.1042834669351577,-0.7365856766700745,0.2634754180908203,-6.132896423339844,-59.99095153808594,12.23116683959961
1700006754629417700,-0.6104173784434795,-3.2626404447108506,0.0980192428665235,-0.104321539402008,-0.6417248249053955,0.2168666422367096,-5.918907165527344,-59.99162292480469,12.118099212646484
1700006754639362800,-0.7197007599830627,-2.986839051759243,0.5159222545824945,-0.1106641143560409,-0.5627692937850952,0.1948761194944381,-6.080879211425781,-59.96031951904297,11.988754272460938
1700006754649307600,-1.0120482140660283,-2.621770644858479,0.7938340638168155,-0.1524232923984527,-0.4643718302249908,0.1796187460422516,-6.260795593261719,-60.070068359375,12.285873413085938
1700006754659253000,-1.3096271390616894,-2.378612461358309,0.8264320458870381,-0.2114890217781067,-0.3693510293960571,0.1339721530675888,-6.477783203125,-60.619388580322266,12.344467163085938
1700006754669198800,-1.3014099303364752,-2.212580772158504,0.8755239205099642,-0.2720236778259277,-0.27362722158432,0.0772736296057701,-6.179244995117188,-60.82682800292969,12.649654388427734
1700006754679143700,-1.2815677502691745,-1.9737784457802767,1.032101698796451,-0.3339467048645019,-0.2045344561338424,0.031320247799158,-6.54791259765625,-60.94434356689453,12.757820129394531
1700006754689088800,-1.470104116743803,-1.595279479420185,1.1150929204117506,-0.3829566240310669,-0.1567467749118805,0.0246775075793266,-6.502853393554688,-60.97861862182617,12.760498046875
1700006754699033900,-1.7959972820758818,-1.0604209075689317,1.1999134032808243,-0.4283778965473175,-0.0729943439364433,0.0292805135250091,-6.649208068847656,-61.288719177246094,12.855289459228516
1700006754708978700,-2.2930559923648834,-0.4380418731749057,1.2237162306074052,-0.4550960958003998,0.0756866037845611,0.0206157751381397,-6.8802337646484375,-61.49468231201172,13.219867706298828
1700006754718924800,-2.752167541575432,0.1584147844552993,1.3604670994609591,-0.4608487784862518,0.3122083246707916,-0.0300220996141433,-7.117462158203125,-61.39155960083008,13.45931625366211
1700006754728869600,-2.863578582793474,0.7272253102689981,1.717851381599903,-0.4533142149448395,0.5806939601898193,-0.1208003833889961,-6.665542602539063,-61.34316253662109,13.63201904296875
1700006754738814700,-2.648850959485769,1.1558137109220028,2.306818267996609,-0.4442000985145569,0.800012469291687,-0.2269132286310196,-6.565620422363281,-61.51310348510742,13.72930145263672
1700006754748759800,-2.37538356243968,1.3831588237404822,3.055608928863704,-0.4228135347366333,0.9674421548843384,-0.3463181257247925,-6.632095336914063,-61.63143157958984,13.92013931274414
1700006754758704600,-1.980350809907913,1.341233991202712,3.774206988301873,-0.3836301863193512,1.040766716003418,-0.4339316189289093,-6.837486267089844,-61.70708847045898,14.264938354492188
1700006754768649700,-1.6881097388088702,0.90885496609509,4.164425618550181,-0.3516695201396942,1.0383257865905762,-0.4839316606521606,-6.933151245117188,-61.55055236816406,14.397140502929688
1700006754778595600,-1.378060623818636,0.3389613212198019,3.9902664447352287,-0.3157354891300201,1.011730670928955,-0.4984914362430572,-7.0027923583984375,-61.76179122924805,14.59463119506836
1700006754788541000,-1.1260650538682937,-0.2317693590015173,3.3487644844591617,-0.2970823943614959,1.0103399753570557,-0.4873161315917969,-7.223953247070312,-61.5435905456543,14.721126556396484
1700006754798485800,-1.1063105520844458,-0.7179641454488038,2.228762091630697,-0.3098317384719848,1.0248461961746216,-0.4427601099014282,-7.335716247558594,-61.493309020996094,14.792537689208984
1700006754808430600,-1.1033891116797925,-0.9261708425551652,1.1043317262921482,-0.3084002137184143,1.033966898918152,-0.3680597245693207,-7.779876708984375,-61.44498443603516,14.67526626586914
1700006754818376000,-0.9532394667446612,-0.7959042942196131,0.4020125284165143,-0.2964551448822021,1.028148174285889,-0.2928440570831299,-7.435714721679687,-61.43872833251953,14.723060607910156
1700006754828320800,-0.6579857698261737,-0.5454086074382066,0.0071204264644533,-0.2504410445690155,0.9886943101882936,-0.2389998584985733,-7.407417297363281,-61.49394226074219,14.78676986694336
1700006754838267000,-0.1965788031548261,-0.2608890705019235,-0.1827718115985393,-0.1899095326662063,0.9312396049499512,-0.2022335976362228,-7.7126617431640625,-61.50509262084961,14.587486267089844
1700006754848211700,0.2213508408397436,0.0474409656107425,-0.4170160362809896,-0.1320207715034485,0.8753988742828369,-0.1786762773990631,-7.473846435546875,-61.64354705810547,14.746471405029297
1700006754858156800,0.484506102707982,0.3614420330971479,-0.6993187008854002,-0.0822292417287826,0.8285852670669556,-0.1614568084478378,-7.2069091796875,-61.60882568359375,14.66659927368164
1700006754868102000,0.5688146174669265,0.6870166339993476,-0.911508330148086,-0.0468128956854343,0.7809950113296509,-0.1508302241563797,-7.500312805175781,-61.44397735595703,14.635723114013672
1700006754878046700,0.4889981534302234,1.0417015940517187,-1.038903122439608,0.0014686184003949,0.7625776529312134,-0.1369753926992416,-7.687370300292969,-61.3741569519043,14.809551239013672
1700006754887992800,0.2979506809175014,1.5013754533201455,-0.9916131826721132,0.0380878299474716,0.7428994178771973,-0.1248075887560844,-7.245391845703125,-61.45806503295898,14.582836151123049
1700006754897937700,0.162973470672965,1.943679075592756,-0.8804653224349022,0.0665493011474609,0.7246788740158081,-0.1166162341833114,-7.360519409179687,-61.36708831787109,14.599361419677734
1700006754907882800,0.1170335572749376,2.3413573741972447,-0.7408294727295637,0.102681279182434,0.6930739283561707,-0.1029541864991188,-7.0369720458984375,-61.37959671020508,14.477561950683594
1700006754917827800,0.0746370155721902,2.7488825285553933,-0.5010104435894638,0.1314913034439087,0.6838201880455017,-0.1032222434878349,-6.967124938964844,-61.719425201416016,14.291500091552734
1700006754927772700,0.1221814415574073,3.1412621362298725,-0.2732428675752133,0.1717830598354339,0.6764655709266663,-0.1118945628404617,-6.532646179199219,-61.44396209716797,14.095909118652344
1700006754937717800,0.2091816796183586,3.571923251503706,-0.0157552030146121,0.2380462437868118,0.6597676873207092,-0.1110614091157913,-6.971870422363281,-61.43639755249024,13.84369659423828
1700006754947662800,0.2657283272266388,3.971764281100034,0.2098356865476816,0.3258562386035919,0.6156800985336304,-0.0924666821956634,-6.663764953613281,-61.56703567504883,13.662940979003906
1700006754957608700,0.3496154017031193,4.308557610630989,0.2304934207815676,0.3829986453056335,0.5608914494514465,-0.062814250588417,-6.67742919921875,-61.66390609741211,13.300861358642578
1700006754967553800,0.3691156364649534,4.468305689516663,0.0255577081698924,0.3850332796573639,0.5024209022521973,-0.0517187193036079,-6.916755676269531,-61.680702209472656,13.22054672241211
1700006754977499400,0.2771206588566303,4.315510498508811,-0.3275860868550836,0.3165041208267212,0.4297415018081665,-0.0634500384330749,-6.680076599121094,-61.55831146240234,13.109870910644531
1700006754987444500,0.0953817065703216,3.993347167354822,-0.71195672172755,0.2547395527362823,0.3682323098182678,-0.0749487653374672,-6.9173583984375,-61.56660842895508,12.83676528930664
1700006754997389600,0.0162076320903841,3.915447350594401,-0.659366264399141,0.2168128490447998,0.2633633315563202,-0.0598967522382736,-6.584938049316406,-61.37801361083984,12.74428939819336
1700006755007334400,-0.1546691681861877,3.95267554974854,-0.3457593107968568,0.2031071633100509,0.1953145116567611,-0.0456046350300312,-6.375556945800781,-61.53482055664063,12.770008087158203
1700006755017280500,-0.3545926055938005,4.0407261736452575,0.0113742845166474,0.212469607591629,0.1980124861001968,-0.0617691613733768,-6.4384765625,-61.73637008666992,12.67208480834961
1700006755027225600,-0.3152221337139606,4.048587993061543,0.3037975072495639,0.2340097874403,0.2232938706874847,-0.0951292514801025,-6.5966339111328125,-61.59856414794922,12.515289306640623
1700006755037170400,-0.2829804908007383,3.85418536490202,0.4987131629651412,0.2579110860824585,0.2495729923248291,-0.1265110075473785,-6.383506774902344,-61.28829956054688,12.407817840576172
1700006755047115500,-0.4818061960995197,3.5563626942783597,0.5801460126899183,0.2677639722824096,0.3119764626026153,-0.164688229560852,-6.310676574707031,-61.17637252807617,12.665382385253906
1700006755057060600,-0.5584153885275125,3.1512633057624098,0.5021619151795282,0.2656468749046325,0.380437821149826,-0.2237553745508194,-6.1088409423828125,-60.95574569702149,12.70473861694336
1700006755067006500,-0.317785846722126,2.614817756980657,0.5285966619122773,0.2565159797668457,0.4356331527233124,-0.3120047748088836,-6.321479797363281,-60.91632461547852,12.347850799560549
1700006755076951600,0.0371703497533686,1.9357143803238868,0.6466597814306616,0.2456862330436706,0.4431304931640625,-0.395768404006958,-6.869606018066406,-60.81453704833984,12.50265121459961
1700006755086896400,0.3740186426082625,1.1740800199747086,0.7688258792884647,0.2351398468017578,0.4493454992771148,-0.4387209117412567,-6.6068267822265625,-60.8281478881836,12.340744018554688
1700006755096841500,0.3977501947969198,0.2460153264969587,0.7810650370061397,0.2258882820606231,0.4636432230472564,-0.4518622756004333,-6.638877868652344,-60.63890838623047,12.382343292236328
1700006755106786600,0.2624947886655107,-0.8846592669934034,0.6946341232657433,0.2161019742488861,0.4935156106948852,-0.4537315666675567,-6.840278625488281,-60.59967803955078,12.171745300292969
1700006755116731400,0.2132225525069981,-2.0561942786604166,0.5521566934589296,0.2208467572927475,0.5176605582237244,-0.4051133990287781,-6.492889404296875,-60.19647216796875,12.350116729736328
1700006755126677500,0.0587865720221772,-3.2217911324501034,0.5218525579469279,0.2251568138599395,0.5261081457138062,-0.3036054074764251,-6.603874206542969,-59.98029708862305,12.42729949951172
1700006755136622300,-0.1744108104884624,-4.172905277603864,0.5416000454680994,0.2363726794719696,0.5445733070373535,-0.1814098805189132,-6.686805725097656,-59.8248405456543,12.122791290283203
1700006755146567700,-0.2799953375101089,-5.02296435585916,0.485828948809579,0.2604085206985473,0.5203302502632141,-0.0621932074427604,-6.668006896972656,-59.73265075683594,12.180706024169922
1700006755156512500,-0.1138063753893598,-5.709560134097933,0.5136153293469921,0.2984495759010315,0.4713155925273895,0.0387813113629817,-6.2150726318359375,-59.50485229492188,12.223857879638672
1700006755166457300,0.3955102703830227,-6.134775843447446,0.4667853717740625,0.3431070446968078,0.4077408611774444,0.1056538224220275,-6.200355529785156,-59.58504486083984,12.180992126464844
1700006755176402700,0.92815763245821,-6.210551507660746,0.2700856456533074,0.3683903217315674,0.383301705121994,0.1386104226112365,-6.179039001464844,-59.64047622680664,11.711280822753906
1700006755186348500,1.4458973117262124,-6.053366557261348,-0.0449726392684504,0.3702944815158844,0.3431705236434936,0.1690327823162078,-5.633956909179688,-59.52971649169922,11.511707305908203
1700006755196293600,1.7794833696484564,-5.82294159860611,-0.2937191990938969,0.3673559427261352,0.339048832654953,0.2429945021867752,-6.004310607910156,-59.46734237670898,11.300228118896484
1700006755206238500,1.3449106338888406,-5.3150885225802655,-0.1652042619323357,0.3522518277168274,0.3585380911827087,0.3584715723991394,-5.755645751953125,-59.34778594970703,10.972332000732422
1700006755216183300,0.234093381502293,-4.722983045896887,0.2816372960308566,0.3394640982151031,0.361485093832016,0.4804674983024597,-5.329414367675781,-59.40124130249024,10.946647644042969
1700006755226128600,-1.0377852973908186,-4.293717768895625,0.95667353284657,0.3710068464279175,0.4102161526679992,0.5360109210014343,-4.578636169433594,-59.51311492919922,10.67313003540039
1700006755236073500,-1.6761059972822665,-3.8983313806205984,1.569327584300935,0.4281130135059356,0.5147817730903625,0.4695957005023956,-3.9017333984375,-59.39563751220703,10.319709777832031
1700006755246019300,-1.473774329689145,-3.6391011832416056,1.7133583079643546,0.4439756274223327,0.5377592444419861,0.3367862701416015,-3.6703414916992183,-59.26301956176758,9.847759246826172
1700006755255964400,-0.7386603119969367,-3.512618829619884,1.081084340891242,0.4224785268306732,0.4466995298862457,0.2791972160339355,-3.1411666870117188,-59.30125045776367,9.100090026855469
1700006755265909500,-0.5664911429554224,-3.063783759751916,0.219261869203858,0.3774505853652954,0.3213831782341003,0.2735249400138855,-3.234603881835937,-59.51492691040039,8.912590026855469
1700006755275854600,-0.7656114472866058,-2.505873982658982,-0.6079855481866747,0.3314736485481262,0.2151106595993042,0.3003092408180237,-3.0563735961914062,-59.37803268432617,8.785202026367188
1700006755285799400,-1.2315198170304298,-1.861290715241432,-1.1176811833392828,0.2917837798595428,0.1583222150802612,0.3483617007732391,-3.3408126831054688,-59.3507080078125,8.374549865722656
1700006755295745300,-1.97694421633482,-1.2494295677304268,-1.4374533085078,0.2385185956954956,0.1426284462213516,0.3929797410964966,-3.2506561279296875,-59.52283477783203,8.1385498046875
1700006755305690600,-2.529836457526684,-0.7358487617075443,-1.670979740309715,0.1999443024396896,0.1054813489317894,0.4342678189277649,-2.455718994140625,-59.56291961669922,7.636966705322266
1700006755315635500,-2.6684967401981354,-0.1563046604335308,-1.590961908482015,0.1791527420282364,0.0405777171254158,0.4630981087684631,-2.376434326171875,-59.663795471191406,7.205650329589844
1700006755325580300,-2.59329098482728,0.4101648552119731,-1.4135697440952062,0.1670452058315277,-0.0306107103824615,0.4641276895999908,-2.1890106201171875,-59.71728515625,7.126338958740234
1700006755335525600,-2.369486905616521,0.8523901515513658,-1.3625050350293515,0.1628307551145553,-0.102004736661911,0.4321364760398865,-2.0837936401367188,-59.83663558959961,6.713287353515625
1700006755345470500,-2.132422362816333,1.186141629168391,-1.3344905082918703,0.1593793928623199,-0.1812344491481781,0.3844504654407501,-1.416839599609375,-59.789432525634766,6.301872253417969
1700006755355416600,-1.917278559923172,1.356314655956626,-1.3459225874103604,0.1391795873641967,-0.2642827033996582,0.3199865221977234,-1.4403228759765625,-59.75560760498047,6.102733612060547
1700006755365361400,-1.6542390333890913,1.3841530954748391,-1.415925659571588,0.1112110316753387,-0.3276426792144775,0.2377308011054992,-1.386810302734375,-59.695743560791016,5.761936187744141
1700006755375306200,-1.373302615636587,1.2721493490606546,-1.483673792412877,0.0882812291383743,-0.391156941652298,0.159850925207138,-1.0497283935546875,-59.69080352783203,5.769996643066406
1700006755385251600,-1.2548001548528671,1.1021668764084578,-1.5054231212757527,0.0642208755016326,-0.4511837065219879,0.0958152040839195,-1.1380844116210938,-59.84891128540039,5.439048767089844
1700006755395196400,-1.169964985871315,0.9250520676583052,-1.447955851691216,0.0658011958003044,-0.5109943151473999,0.0411500893533229,-1.2359237670898438,-59.79874420166016,5.275913238525391
1700006755405141500,-1.008216088557243,0.8292775715112686,-1.2723435564585028,0.0936804562807083,-0.5589438080787659,-0.0016336138360202,-1.1609420776367188,-59.75648880004883,5.069530487060547
1700006755415087400,-0.9147346717834473,0.8288269051343202,-1.1065148424848914,0.1246692687273025,-0.5959276556968689,-0.0275799930095672,-1.131011962890625,-59.87569427490234,4.897613525390625
1700006755425032400,-0.8385551760096103,0.8371516658872366,-1.055442534634471,0.1504440307617187,-0.6320222020149231,-0.039079051464796,-1.3257064819335938,-59.998268127441406,4.691265106201172
1700006755434977500,-0.7322878543555736,0.7974164523482322,-1.0393177676551044,0.1551660746335983,-0.6691349148750305,-0.055205825716257,-1.454864501953125,-60.065467834472656,4.6983184814453125
1700006755444922400,-0.4800257424235343,0.7532388724476099,-1.0452165433701126,0.1468120366334915,-0.6961135864257812,-0.0834820345044136,-1.5252914428710938,-60.07807540893555,4.451702117919922
1700006755454867500,-0.091855276876688,0.8269225328177213,-1.0224893824510275,0.1353151798248291,-0.7135215997695923,-0.1117938384413719,-1.5754623413085938,-60.2353401184082,4.206432342529297
1700006755464813600,0.2313572528029792,0.980650036239624,-0.9311468774020673,0.1184329837560653,-0.7309221029281616,-0.1483860164880752,-2.0599441528320312,-60.13433837890625,4.063400268554688
1700006755474758400,0.5785468703975901,1.1596703863501547,-0.8943496170111,0.0883491113781929,-0.7559270858764648,-0.1755926012992859,-2.0189437866210938,-60.32644271850586,3.9995155334472656
1700006755484703500,0.7664636802017688,1.452972364678979,-0.8534669139374047,0.0681376978754997,-0.7844378352165222,-0.1891921311616897,-1.9717330932617188,-60.43434524536133,3.938564300537109
1700006755494648600,0.8553963476300239,1.7264385926812886,-0.8111036169171333,0.0665326118469238,-0.7816340327262878,-0.2238473147153854,-2.3947525024414062,-60.46636581420898,3.740570068359375
1700006755504593400,0.9287830708801744,1.7102900064349174,-0.7530489028334617,0.0269608125090599,-0.7901691198348999,-0.201131671667099,-2.4402618408203125,-60.516357421875,3.573715209960937
1700006755514538500,0.5384288315534591,2.359084754067659,-0.7656560901459306,0.0262817069888114,-0.7796595096588135,-0.1587985903024673,-2.6711959838867188,-60.59967422485352,3.45352554321289
1700006755524484400,0.3054384245906956,2.724226810726523,-0.4554383405905217,0.020713934674859,-0.800524115562439,-0.1247308701276779,-3.06640625,-60.75449752807617,3.542560577392578
1700006755534429400,0.5032452899694443,2.994013473433256,-0.3862997032389044,0.0190627761185169,-0.8179150819778442,-0.1073649227619171,-3.190025329589844,-60.634986877441406,3.262645721435547
1700006755544374500,0.4185340396285056,3.2697517380207777,-0.3807701261624693,0.019399132579565,-0.838493824005127,-0.0970164164900779,-3.372138977050781,-60.7344970703125,3.117462158203125
1700006755554319400,0.3158803053617477,3.5562294232875105,-0.287274388602376,0.0236197095364332,-0.8738736510276794,-0.0895033702254295,-3.4478302001953125,-60.51567077636719,3.353679656982422
1700006755564264400,0.2886380781710148,3.865414614924788,-0.1328059671526774,0.035619743168354,-0.9063982963562012,-0.1010135114192962,-3.7998199462890634,-60.4779167175293,3.305377960205078
1700006755574209500,0.2868599625825881,4.106942566874623,-0.0196419082548469,0.0441690236330032,-0.939505100250244,-0.1260946244001388,-3.927093505859375,-60.461334228515625,3.3514938354492188
1700006755584155600,0.3466460305035114,4.279947602218389,0.0342102395724505,0.045416884124279,-0.9743347764015198,-0.1820434331893921,-3.965744018554688,-60.24253845214844,3.19436264038086
1700006755594100500,0.6189759479522705,4.395419901525974,0.0653157545952126,0.0253233350813388,-0.9991368055343628,-0.2378206700086593,-4.160850524902344,-60.54515838623047,3.1754684448242188
1700006755604045300,0.7059200719118118,4.65419650991857,0.1422718972973525,0.0239027850329875,-1.0179215669631958,-0.2965165078639984,-4.426155090332031,-60.48596954345703,3.1486053466796875
1700006755613990700,0.6955015537500381,4.64960859760642,0.3830771975284442,0.0221853125840425,-1.0409832000732422,-0.3578006327152252,-4.644477844238281,-60.524864196777344,3.124828338623047
1700006755623935500,0.6012123277246951,4.49953318695128,0.4934496529463678,0.0141378100961446,-1.054977536201477,-0.4200173616409302,-4.721969604492188,-60.64007186889648,3.16995620727539
1700006755633880300,0.3491547984540462,4.107548131552338,0.5326098065437749,0.0109654525294899,-1.0368001461029053,-0.4799563288688659,-5.282875061035156,-60.72701644897461,3.355304718017578
1700006755643826400,0.1086345622420311,3.5775492746919397,0.5554089367205277,0.0122854690998792,-1.0043456554412842,-0.5272360444068909,-5.3482208251953125,-60.43827438354492,3.4540557861328125
1700006755653771500,-0.065002925786376,2.934781532263756,0.4328376190626993,0.0063532777130603,-0.9773340225219728,-0.5584195256233215,-5.805320739746094,-60.50480651855469,3.516876220703125
1700006755663716600,-0.0637935317303054,2.1087410429775715,0.2312343388093635,-0.0099518150091171,-0.9501156210899352,-0.5805962681770325,-6.0323638916015625,-60.3663330078125,3.4523582458496094
1700006755673661400,0.0393769016206264,1.1249316659241917,-0.0257535230029374,-0.0565089285373687,-0.9087522029876708,-0.6056923270225525,-6.714302062988281,-60.04631423950195,3.800392150878906
1700006755683606300,0.2331867880513891,0.0419248325377702,-0.3690525446334853,-0.1288184225559234,-0.860548734664917,-0.6363164186477661,-7.2182159423828125,-59.921669006347656,4.257656097412109
1700006755693552400,0.3259738658854738,-1.0769488485217094,-0.6539929007977247,-0.2076091021299362,-0.7944368124008179,-0.6452335119247437,-7.354690551757812,-59.98377990722656,4.442211151123047
1700006755703497500,0.1339414374560117,-2.1565911739110946,-0.8768211207136511,-0.2731032073497772,-0.6976242661476135,-0.6381749510765076,-7.465843200683594,-59.87809753417969,4.785312652587891
1700006755713442600,-0.0266056828528642,-3.056812167173624,-1.0295531833574176,-0.3003262877464294,-0.6005150675773621,-0.5840389728546143,-8.051780700683594,-59.76274108886719,5.17889404296875
1700006755723387400,-0.1791547901451587,-3.698714232683181,-1.1949660100065171,-0.2977628409862518,-0.5329409241676331,-0.4586859345436096,-8.56256103515625,-59.62258529663086,5.475261688232422
1700006755733332500,-0.3272925838012248,-4.089313386681676,-1.3531544383600351,-0.278698056936264,-0.4944478869438171,-0.2992576658725738,-9.148406982421877,-59.32341766357422,5.637428283691406
1700006755743277600,-0.3287473857194185,-4.308706663712859,-1.5275477131918072,-0.2653681635856628,-0.4754430055618286,-0.1350592672824859,-9.223220825195312,-59.2760009765625,5.843120574951172
1700006755753223400,-0.1103723458200693,-4.437008049455285,-1.7193819521680471,-0.2547179162502289,-0.4630222916603088,0.0170106962323188,-9.291831970214844,-59.14737319946289,5.955284118652344
1700006755763168500,0.1497463248312473,-4.371300190269947,-1.844310792737454,-0.2559340000152588,-0.446147471666336,0.1499649584293365,-9.777496337890623,-59.38462448120117,6.377799987792969
1700006755773113600,0.3253635154347866,-4.055090214562416,-1.8910263666830955,-0.258908748626709,-0.4352791011333465,0.2808476090431213,-9.645767211914062,-59.49044036865234,6.486907958984375
1700006755783058400,0.4852063964644447,-3.5750235556066032,-1.7824483569338916,-0.2589356601238251,-0.4359954297542572,0.4081455171108246,-9.770301818847656,-59.540184020996094,6.617778778076172
1700006755793003500,0.3455653225947171,-2.9933915421426294,-1.6548752854660151,-0.2678087651729584,-0.423382431268692,0.5250793099403381,-9.425621032714844,-59.31203079223633,7.089206695556641
1700006755802948400,-0.1046808196475729,-2.6316303600937125,-1.4300124909825622,-0.2902268767356872,-0.3353438973426819,0.5827575922012329,-9.278823852539062,-59.49966812133789,7.229087829589844
1700006755812894500,-0.5571797092527151,-2.7887872534424063,-1.1008841431215406,-0.3299724459648132,-0.1861040592193603,0.5657171010971069,-9.05413818359375,-59.66328048706055,7.41827392578125
1700006755822839600,-0.9488350212406368,-2.9998242055386304,-0.6152171799406408,-0.3773967623710632,-0.053140353411436,0.5160569548606873,-8.817024230957031,-59.95833587646485,7.624221801757812
1700006755832784400,-0.9747913733392952,-3.234738292306661,-0.1052626563898287,-0.4300378561019897,0.0445598401129245,0.4208606481552124,-8.420600891113281,-59.85675048828125,7.899005889892578
1700006755842729500,-0.4979132812917232,-3.6260891414552927,0.2546429426539689,-0.4758833348751068,0.0729926750063896,0.3511109054088592,-8.440185546875,-60.02614974975586,8.029937744140625
1700006755852674600,-0.2519546716843731,-3.825002525037527,0.4880726360831409,-0.5292149782180786,0.0560712218284606,0.2999766170978546,-8.2713623046875,-60.09001541137695,8.548980712890625
1700006755862620700,-0.3403460535764694,-3.840454945713281,0.6035659781787545,-0.5670574307441711,0.0381355285644531,0.2515552937984466,-8.177635192871094,-60.51433563232422,8.692928314208984
1700006755872565500,-0.6603846476614474,-3.688620124170184,0.7293873106084764,-0.588816225528717,0.0595223121345043,0.2026239782571792,-8.050270080566406,-60.41550064086914,9.134883880615234
1700006755882510300,-1.0876046825706958,-3.292858472841978,0.8638526988733559,-0.5867039561271667,0.1339363902807235,0.1564589291810989,-8.483352661132812,-60.49824523925781,9.426189422607422
1700006755892455700,-1.6514584627598523,-2.7433623038291928,0.9319183732312172,-0.5929714441299438,0.2376657128334045,0.120624765753746,-8.289108276367188,-60.55867004394531,9.667423248291016
1700006755902400500,-2.041289554995298,-2.0543547882735727,0.7994630096144973,-0.5982226729393005,0.3397524058818817,0.0793572217226028,-8.128005981445312,-60.59390258789063,10.045570373535156
1700006755912345300,-2.216654889729619,-1.3039432482063769,0.7690782466143369,-0.6019833087921143,0.4126740097999573,0.045730821788311,-8.419853210449219,-60.74307632446289,10.516250610351562
1700006755922291500,-2.452311903819442,-0.5829179616212844,0.9606870793368668,-0.5958897471427917,0.4688956439495086,0.0155252572149038,-8.430473327636719,-60.87989807128906,11.003776550292969
1700006755932236500,-2.6366613399982453,0.033536358898878,1.2739245420396328,-0.5631938576698303,0.5307416915893555,-0.0197387225925922,-8.557762145996094,-60.87290573120117,11.130611419677734
1700006755942181600,-2.512757312431932,0.4849988546609878,1.6785551440000532,-0.5060423016548157,0.5979179739952087,-0.0676154047250747,-8.506393432617188,-61.16101837158203,11.34038543701172
1700006755952126500,-2.294132681685686,0.7146200957179069,2.0065954043634235,-0.4415677189826965,0.6471691727638245,-0.121942825615406,-8.586776733398438,-61.081016540527344,11.666568756103516
1700006755962071300,-2.094166574180126,0.7672171289175749,2.060609464754164,-0.3847623467445373,0.6871951222419739,-0.1563111096620559,-8.876091003417969,-61.316650390625,11.651847839355469
1700006755972017000,-2.0160633438020943,0.7092419098109006,1.8254133461743591,-0.336369514465332,0.7179855108261108,-0.1656332463026046,-8.9603271484375,-61.164180755615234,11.952922821044922
1700006755981962800,-2.005752377668023,0.5708095906764269,1.5283970234975215,-0.288952499628067,0.7387298345565796,-0.1596847027540207,-8.929145812988281,-61.43455505371094,11.924945831298828
1700006755991907800,-1.798018558770418,0.4547732277452945,1.3286525959186255,-0.2398440986871719,0.7474061250686646,-0.1490917056798935,-9.035301208496094,-61.40608215332031,11.979782104492188
1700006756001852700,-1.4726643226206302,0.4159294100880623,1.0863696608830242,-0.192881554365158,0.7542664408683777,-0.1332644969224929,-9.138565063476562,-61.60244369506836,12.011348724365234
1700006756011797800,-1.231651918977499,0.4643208082914352,0.8161875691179186,-0.1556503027677536,0.7408278584480286,-0.1056959927082061,-8.885551452636719,-61.59685134887695,12.196430206298828
1700006756021742800,-1.0576070191919802,0.5525988112032413,0.5357263676617294,-0.1275950223207473,0.7480140328407288,-0.0951176509261131,-8.822074890136719,-61.61990737915039,12.53635025024414
1700006756031687700,-0.7910662065386772,0.689558135175705,0.3144741648908704,-0.1014837846159935,0.7385872006416321,-0.0943155065178871,-8.859222412109375,-61.734901428222656,12.453678131103516
1700006756041633500,-0.5326841504216194,0.8791296899169683,0.1604128264047205,-0.066521979868412,0.7046650648117065,-0.0824411064386367,-8.625343322753906,-61.63618850708008,12.190467834472656
1700006756051579000,-0.278559167227149,1.0895224988907577,0.1317573714151978,-0.0229183062911033,0.6683472394943237,-0.0589802488684654,-8.834831237792969,-61.6552619934082,11.929054260253906
1700006756061523700,-0.0338718744635581,1.391607503134012,0.1528295316688716,0.0279099680483341,0.627049446105957,-0.0330314859747886,-8.8599853515625,-61.6906852722168,11.75722885131836
1700006756071468800,0.1935404583722353,1.614226171952486,0.1006681134074926,0.0803670510649681,0.6413058638572693,-0.0218523330986499,-8.807281494140625,-61.7498664855957,11.59783935546875
1700006756081413600,0.1379202779591083,1.8194564835965632,0.0234728647198528,0.1302032470703125,0.6820181012153625,-0.0202378407120704,-8.572158813476562,-61.887115478515625,11.379920959472656
1700006756091358700,0.0473906967282295,1.997559718862176,0.0706121439702808,0.1861317604780197,0.7226728200912476,-0.0147378798574209,-8.2615966796875,-61.796661376953125,11.38162612915039
1700006756101304800,0.0022457513664849,2.2394646874308584,0.2380751811474561,0.2255467176437378,0.760928750038147,0.0042979628778994,-8.297088623046875,-61.90274810791016,10.96078872680664
1700006756111249700,-0.1914572223573923,2.533183429867029,0.3669575816482305,0.2814302146434784,0.7888913750648499,0.0316073484718799,-8.209480285644531,-62.148719787597656,10.9173583984375
1700006756121194800,-0.364224357292056,2.849944025194645,0.5909180204644799,0.3186094760894775,0.8043256998062134,0.0463204607367515,-8.336158752441406,-61.83794021606445,10.79794692993164
1700006756131139800,-0.404476872703433,3.058020958441496,0.7256438132312149,0.3382081985473633,0.8093894124031067,0.0406876131892204,-8.182907104492188,-62.009552001953125,10.44964599609375
1700006756141084700,-0.3718570441275834,3.1884166861146688,0.7895308867301791,0.349613219499588,0.808824360370636,0.0131055386736989,-8.440879821777344,-62.22804260253906,10.154060363769531
1700006756151030800,-0.2856564320117235,3.2317011165678498,0.8324190113421529,0.3247134685516357,0.8097003102302551,-0.0332033708691597,-8.00634765625,-62.20013427734375,9.767570495605469
1700006756160975600,-0.2412280922204256,3.1618367222249506,0.67792965670228,0.2908567190170288,0.8144268989562988,-0.0854212641716003,-7.942451477050781,-62.09710311889648,10.054817199707031
1700006756170920700,-0.3032709991574287,3.0773113498449325,0.5009286470575258,0.2607185244560241,0.8365580439567566,-0.12666617333889,-8.105178833007812,-62.26339340209961,9.994094848632812
1700006756180865800,-0.3646709320157766,3.0628216367214915,0.3831080310581252,0.2239526212215423,0.8416908383369446,-0.1670836061239242,-7.682670593261719,-62.21217346191406,9.689556121826172
1700006756190810600,-0.2284650384928099,3.02254047973752,0.2017327883845195,0.2147828191518783,0.8287351131439209,-0.1622800678014755,-8.430221557617188,-61.93925857543945,9.463420867919922
1700006756200755700,-0.2017196731746196,3.175239809155464,0.2119414631878957,0.2173722684383392,0.8119546175003052,-0.141571968793869,-8.418609619140625,-61.939971923828125,9.344718933105469
1700006756210701800,-0.1174964986115694,3.346331119832396,0.2808097591655328,0.2351347506046295,0.8186697363853455,-0.1286417841911316,-8.0380859375,-61.8305892944336,9.293426513671877
1700006756220646700,-0.0303635740816593,3.4022330397963523,0.2656643220797181,0.2439661622047424,0.825385570526123,-0.1132700815796852,-8.077545166015625,-61.801368713378906,9.262443542480469
1700006756230591700,-0.0402946009874343,3.319192353016138,0.2385286240033805,0.2332016825675964,0.8298484683036804,-0.1233256459236145,-7.71795654296875,-61.71257781982422,9.249652862548828
1700006756240536600,0.1129348989176098,2.993790186071396,0.0955876318054273,0.2350002974271774,0.8169876933097839,-0.1162243708968162,-7.9719696044921875,-61.71022033691406,9.15182876586914
1700006756250481700,0.0669353551536798,2.731085590580105,0.1125808521823957,0.2412342280149459,0.7807838916778564,-0.0807252377271652,-7.965827941894531,-61.66949844360352,9.241649627685549
1700006756260426800,0.1027431478495709,2.539022219023108,0.2441621363783255,0.2457850724458694,0.713089108467102,-0.0343934036791324,-7.864158630371094,-61.73246383666992,9.11151885986328
1700006756270372600,0.2443301498889923,2.270799736893177,0.3429774980586021,0.2391793727874755,0.6412676572799683,0.0050658541731536,-7.5879058837890625,-61.328102111816406,9.175880432128906
1700006756280317700,0.3716892863452434,1.818183394920826,0.4027163658369332,0.2283527255058288,0.5962473154067993,0.0212457180023193,-7.3861083984375,-61.3326530456543,8.975837707519531
1700006756290262800,0.4784668225437402,1.228585517144203,0.450554587136954,0.2227036207914352,0.5872847437858582,0.0206153485924005,-7.296043395996094,-61.21282577514648,8.937721252441406
1700006756300207600,0.5804933648228645,0.5829390044093131,0.5595771257832646,0.2105321586132049,0.5802722573280334,0.0119306240230798,-7.2000274658203125,-61.23087692260742,9.167976379394531
1700006756310152700,0.7086708319246768,-0.1190466506630182,0.675659958204627,0.1997141391038894,0.5773044228553772,0.0141868535429239,-7.169967651367188,-60.96018981933594,8.98248291015625
1700006756320098600,0.5683078369885682,-0.854596137163043,0.7682077473901212,0.2007564008235931,0.5942980051040649,0.0301204957067966,-6.8792266845703125,-60.77276611328125,8.9952392578125
1700006756330044000,0.4109054444462061,-1.596868794438243,0.8447070497028529,0.2179801315069198,0.626044750213623,0.0634126737713813,-6.8441925048828125,-60.65026092529297,9.157108306884766
1700006756339988700,0.2223988885879516,-2.300346733894944,0.8963857990138232,0.2332199066877365,0.6710214614868164,0.1072365194559097,-6.801681518554688,-60.5962142944336,9.159309387207031
1700006756349933600,0.0593178658872842,-3.028637043046951,0.838761658367142,0.2564972937107086,0.713346540927887,0.1659669429063797,-6.395790100097656,-60.44213485717773,8.93802261352539
1700006756359878700,-0.0122644382894039,-3.7419466406881807,0.7997327664665878,0.2832266092300415,0.7534048557281494,0.2407875061035156,-5.6334381103515625,-60.43696975708008,8.943748474121094
1700006756369823700,-0.1415063197523355,-4.405906808748841,0.8583641113944351,0.3167494237422943,0.7795989513397217,0.3096384704113006,-5.682769775390625,-60.2114372253418,8.61566162109375
1700006756379769900,-0.1005973862588405,-5.025698164737224,0.996447470960766,0.3455511927604675,0.7785021662712097,0.3551241755485534,-5.377082824707031,-60.1712532043457,8.59280014038086
1700006756389714700,0.2389385199785232,-5.564140440294146,1.021543406837806,0.3721354007720947,0.7297292947769165,0.3820101320743561,-5.198051452636719,-60.03746032714844,8.425514221191406
1700006756399659500,0.7486053674280643,-5.924029983252287,0.911926993951574,0.3995862603187561,0.6297191977500916,0.4317421615123749,-4.4527435302734375,-60.1524658203125,8.191326141357422
1700006756409604900,0.8926970274984836,-5.904966970863938,0.6965292162973433,0.4366715550422668,0.5508970618247986,0.5080134272575378,-4.3170928955078125,-60.27626037597656,7.717540740966797
1700006756419549700,0.7057821247458458,-5.6232040391594165,0.4024274293603375,0.4600767791271209,0.5230052471160889,0.5756151676177979,-4.0401611328125,-60.017765045166016,7.517059326171875
1700006756429494500,0.5145008434772491,-5.334889786115289,0.1294266451789997,0.4782808423042297,0.5256705284118652,0.6227323412895203,-3.787567138671875,-59.79440307617188,7.141143798828125
1700006756439440600,0.1298036435315385,-4.998625448894501,0.1597303240332752,0.4793123006820678,0.5566312074661255,0.6555660963058472,-3.2915496826171875,-59.93596649169922,6.729740142822266
1700006756449385700,-0.4034147964298725,-4.483653480774164,0.3472762181658297,0.4780465066432953,0.5966278910636902,0.6741293668746948,-2.6056060791015625,-59.9780158996582,6.32470703125
1700006756459330800,-0.9393126482009888,-3.900680574095249,0.4745640429515391,0.4690328538417816,0.6305204033851624,0.6807481050491333,-1.80877685546875,-60.21882629394531,5.7841339111328125
1700006756469275600,-1.4453390933215615,-3.3931074840545654,0.5053192466992884,0.4833822250366211,0.650870680809021,0.705056369304657,-1.4249649047851562,-60.02018356323242,5.430168151855469
1700006756479220700,-1.7273264814317226,-2.733214419302344,0.6735987878911197,0.4655326306819916,0.6846885681152344,0.6936299800872803,-1.0296859741210938,-60.14307403564453,5.013462066650391
1700006756489165800,-1.74642865678668,-2.29511292489469,0.5527275886820628,0.3803351819515228,0.6970946788787842,0.6583713293075562,-0.6038665771484375,-60.03767013549805,4.566074371337891
1700006756499111700,-1.7597019798576832,-2.413196868005395,-0.1259582932149991,0.2940329909324646,0.6592474579811096,0.678373396396637,-0.530059814453125,-59.9590072631836,4.043258666992188
1700006756509056800,-2.158741045421362,-2.348140166205168,-0.5482356110250577,0.1455465704202652,0.6161561608314514,0.6851849555969238,-0.044403076171875,-59.92882537841797,3.469982147216797
1700006756519001600,-2.4039655138015745,-2.395734276551008,-1.0500951822571456,0.023194134235382,0.5336745381355286,0.6976054906845093,0.1711959838867187,-60.18219757080078,3.4214401245117188
1700006756528946700,-2.5442086817502974,-2.2167431525349617,-1.256752311833948,-0.0453021004796028,0.4323391318321228,0.7500750422477722,0.4460601806640625,-60.26356506347656,3.0205307006835938
1700006756538891800,-2.8252479753553867,-1.4884095887631177,-1.120570255844295,-0.0549154244363307,0.3296319842338562,0.8200621008872986,1.1646347045898438,-60.109840393066406,2.628398895263672
1700006756548836600,-2.754084773373604,-0.4461258109092712,-0.923722937946394,-0.0453357696533203,0.2818165123462677,0.856131911277771,1.4228439331054688,-60.23821258544922,1.921817779541016
1700006756558782700,-2.601453248494863,0.5592950939714908,-0.881776697294414,-0.0745230242609977,0.2522044479846954,0.8247188925743103,1.706146240234375,-60.16564178466797,2.07342529296875
1700006756568727800,-2.212338341704756,0.963439958241582,-1.238801352340728,-0.145231544971466,0.2390678822994232,0.7369893193244934,2.294349670410156,-60.37522888183594,1.902008056640625
1700006756578672600,-1.8437937831260265,1.0301946961313486,-1.511827143099159,-0.210778921842575,0.2014440298080444,0.6613582372665405,2.941741943359375,-60.46981048583984,1.4553680419921875
1700006756588617700,-1.7197288659095764,1.140475272014737,-1.43597066873461,-0.2368225157260894,0.1765107214450836,0.603046178817749,3.1600570678710938,-60.63745880126953,1.2795639038085938
1700006756598562800,-1.7256652702212332,1.3914829999715088,-1.051416493988782,-0.2328166216611862,0.1271256059408188,0.5371666550636292,3.734786987304688,-60.70263671875,1.3004608154296875
1700006756608509000,-1.253189212524891,1.4908943913161754,-0.7817664632737636,-0.2310639917850494,0.1138827577233314,0.430527001619339,4.113655090332031,-60.65340042114258,1.3176498413085938
1700006756618453800,-0.8729669295035302,1.3824837009578943,-0.7716985121153295,-0.2375064045190811,0.1226221099495887,0.327056884765625,4.026481628417969,-60.98479080200195,1.0761489868164062
1700006756628398600,-0.7999183521665633,1.2253969502359627,-0.7408243581630289,-0.2432673573493957,0.1255276203155517,0.2314430028200149,4.201652526855469,-60.87887573242188,1.1130714416503906
1700006756638344000,-0.5525428432323038,1.1563871268957853,-0.6294844824850558,-0.2523775398731231,0.1193500533699989,0.1597771644592285,4.196556091308594,-60.93051528930664,1.1846961975097656
1700006756648288800,-0.4397464851357042,1.1779717667162417,-0.4768889787677675,-0.2526920437812805,0.130875676870346,0.1087153181433677,3.8548660278320312,-60.89020538330078,1.2505264282226562
1700006756658233600,-0.3901182386137545,1.269278177538514,-0.3262422344980761,-0.2501666247844696,0.1575939953327179,0.0667688846588134,3.7592086791992183,-60.89484405517578,1.0703811645507812
1700006756668179700,-0.2336908285833895,1.3673808243721723,-0.2239990172609686,-0.2446397840976715,0.1993393003940582,0.0337249226868152,3.7782135009765625,-61.06156539916992,0.9387359619140624
1700006756678124500,-0.0739772364892065,1.3870903179705143,-0.1751198355406522,-0.2443054616451263,0.2381262183189392,0.0178699642419815,3.8424301147460938,-61.00796508789063,0.9341392517089844
1700006756688070000,0.0260416192293167,1.2902566681593657,-0.2441323988271877,-0.255307525396347,0.2816819548606872,0.0086732693016529,3.6937179565429688,-61.25601577758789,1.043243408203125
1700006756698014700,0.1191853284813463,1.1680126827597617,-0.3312600261274725,-0.2627107501029968,0.3433252274990082,0.004109984729439,3.595932006835937,-61.31345748901367,1.1519432067871094
1700006756707959600,0.2333538517139851,1.126042257514596,-0.2955678226352669,-0.2584278583526611,0.4170929193496704,-0.0031151715666055,3.435211181640625,-61.51984405517578,1.2149505615234375
1700006756717905000,0.4110005753837525,1.1800427277714014,-0.195134961022064,-0.2355832904577255,0.4730288982391357,0.0037322174757719,3.5300216674804688,-61.693824768066406,1.1920661926269531
1700006756727850800,0.5351612080596387,1.2935276526540518,-0.0684504176254384,-0.2211513519287109,0.5138149261474609,0.0220880545675754,3.86846923828125,-61.62331771850586,1.1567039489746094
1700006756737795800,0.5382474836371839,1.41061615498662,-0.1301301538058556,-0.2132912278175354,0.5290231704711914,0.0542634613811969,3.614349365234375,-61.5898666381836,1.059528350830078
1700006756747740700,0.4794026420891285,1.603449926394224,-0.1481711479363963,-0.2133458107709884,0.5459057092666626,0.065143808722496,3.547836303710937,-61.616817474365234,0.999420166015625
1700006756757685800,0.6325789413690567,1.87806181730032,-0.0990947083446197,-0.204585313796997,0.5763501524925232,0.0203743390738964,3.7053146362304688,-61.76698684692383,0.7238540649414062
1700006756767630800,0.9598279052242636,2.129401553690433,-0.0385259108144789,-0.2274983525276184,0.616179347038269,-0.0213326252996921,4.125480651855469,-61.71211624145508,0.8922462463378906
1700006756777575700,0.9178300074502824,2.673497324964404,-0.0644122116179205,-0.2263575792312622,0.6515804529190063,-0.0488744266331195,4.052711486816406,-61.71478271484375,0.8159713745117188
1700006756787521800,0.6753006233729422,2.995382423698902,0.1944361285703256,-0.2160122692584991,0.7064186334609985,-0.0814187824726104,3.78729248046875,-61.571407318115234,1.01348876953125
1700006756797467000,0.5660534821905195,3.155862323990464,0.4373441732343286,-0.2289928495883941,0.7564722895622253,-0.0799968168139457,3.621284484863281,-61.759727478027344,0.83905029296875
1700006756807411700,0.3306302768565714,3.737428871002793,0.5591723443746567,-0.2124186754226684,0.770315945148468,-0.0702366009354591,3.437416076660156,-61.66643905639648,0.7731819152832031
1700006756817356800,0.228344791380316,3.891290229937434,0.9535637302629648,-0.1926082968711853,0.7810832262039185,-0.0576846301555633,3.771774291992188,-61.72663879394531,0.9732322692871094
1700006756827301600,0.1501516907617449,3.940392406758666,1.0989865658719091,-0.1921398490667343,0.8033544421195984,-0.0240888558328151,3.8355636596679688,-61.572696685791016,0.9410629272460938
1700006756837246700,-0.0816553699016571,4.043111022955179,1.069127580311522,-0.2026109099388122,0.8022107481956482,-0.0031461950857192,3.864959716796875,-61.70532989501953,0.9693832397460938
1700006756847192800,-0.1290006200529634,4.0996857276141645,1.0909556734990329,-0.2029768228530883,0.7724863886833191,0.0038291560485959,3.775299072265625,-61.653446197509766,1.0792999267578125
1700006756857137700,-0.1564145505487919,4.024261361056566,1.0742095597509294,-0.1987489908933639,0.739832878112793,0.0077345985919237,3.4804763793945312,-61.5402946472168,1.363800048828125
1700006756867082800,-0.2264027174018323,3.8109412664592255,0.9195383457381278,-0.1819332540035247,0.7426742315292358,-0.0086353197693824,3.5906219482421875,-61.41127395629883,1.2086906433105469
1700006756877027800,-0.281892841694504,3.565620936489105,0.6647288143455982,-0.1611254513263702,0.7477542757987976,-0.0187019445002079,4.145233154296875,-61.34858703613281,1.3642654418945312
1700006756886972700,-0.4278796678617596,3.197134830099344,0.3313330182984471,-0.1397005766630172,0.7305305600166321,-0.0272711981087923,3.955169677734375,-61.43391036987305,1.6013412475585938
1700006756896918800,-0.5132302390195429,2.6380367200046777,0.0046417910739895,-0.1364918351173401,0.6813173890113831,-0.0203215889632701,3.864212036132813,-61.1347770690918,1.5621566772460938
1700006756906863600,-0.5690121858656406,2.064382261291146,-0.3785782421413808,-0.1367986351251602,0.5884689092636108,-0.0078848926350474,3.930084228515625,-61.1044921875,1.567584991455078
1700006756916808700,-0.53464112970829,1.506680573990941,-0.6890406141076236,-0.122570164501667,0.4860163331031799,-0.0164893008768558,4.205787658691406,-61.109596252441406,1.631927490234375
1700006756926753800,-0.2840542575120925,1.0593325278103352,-0.8328809297654777,-0.0873322784900665,0.3801362216472626,-0.0375173538923263,4.272575378417969,-60.69698333740234,1.9783782958984373
1700006756936698600,-0.0536826364792883,0.6212585059314966,-0.9766101131990552,-0.0629579648375511,0.2971622347831726,-0.0773846134543418,4.163993835449219,-60.71033477783203,1.8176612854003904
1700006756946643700,0.1432698222935199,0.1821300065636634,-1.2957840532787144,-0.0438705533742904,0.2353049963712692,-0.117055594921112,4.375434875488281,-60.58481216430664,2.126285552978516
1700006756956589800,0.2237995491661131,-0.1354027421802282,-1.6580870871193707,-0.0386850349605083,0.1943362057209015,-0.1547729671001434,4.272773742675781,-60.39558410644531,2.143867492675781
1700006756966534700,0.1927778034366667,-0.4974637839585542,-1.8550502134166655,-0.0380381532013416,0.1641628593206405,-0.1691585779190063,4.3746337890625,-60.563697814941406,1.8518791198730469
1700006756976478500,0.0687654931902885,-0.786452575263381,-1.815417437338829,-0.0276064798235893,0.138898104429245,-0.1645334213972091,4.498313903808594,-60.4360237121582,2.2155685424804688
1700006756986423800,-0.1154993334449827,-1.088219599598646,-1.4699331440910697,-0.0027543911710381,0.1026186570525169,-0.142634242773056,4.567848205566406,-60.44325256347656,2.1516265869140625
1700006756996368600,-0.1771054563999176,-1.539409123638272,-1.1466377401672303,0.0225738864392042,0.0306271873414516,-0.1141882091760635,4.292961120605469,-60.39262008666992,2.3221969604492188
1700006757006313500,0.1413465991459787,-2.1042893242657184,-1.096163325144723,0.0326803177595138,-0.0506956316530704,-0.0834697112441062,4.404754638671875,-60.25615692138672,2.233428955078125
1700006757016259600,0.595978372593969,-2.6256179679363965,-1.3615861666187643,0.036253273487091,-0.1410535275936126,-0.0234878417104482,4.258857727050781,-60.20538711547852,2.4235610961914062
1700006757026204700,0.811681270674616,-3.060857058650255,-1.6876460668198765,0.020814660936594,-0.1778229922056198,0.0410298965871334,4.385932922363281,-60.14763259887695,2.4281044006347656
1700006757036149800,1.0118177663110195,-3.3864135393738746,-1.930698890249431,-0.0004035038873553,-0.1774462759494781,0.1137870773673057,4.5560455322265625,-60.20570755004883,2.2819557189941406
1700006757046094600,0.9976232367418706,-3.58379606012702,-2.0361272037960587,-0.0283517818897962,-0.144935205578804,0.2005978673696518,4.528083801269531,-60.0267333984375,2.268207550048828
1700006757056039700,0.8109573403142392,-3.608244857206941,-1.885146953255683,-0.0488324053585529,-0.1299938857555389,0.2842389345169067,5.01806640625,-60.14523315429688,2.4826812744140625
1700006757065984800,0.922280849379301,-3.477559206676483,-1.551828167967498,-0.0652779564261436,-0.1404260247945785,0.3533141314983368,5.326408386230469,-60.05619812011719,2.482646942138672
1700006757075930600,1.2052971421457823,-3.556801085695624,-1.3245581662118433,-0.1046555563807487,-0.1260665655136108,0.3936561644077301,5.124137878417969,-59.85626602172852,2.473522186279297
1700006757085875700,1.211732728151232,-3.955447937071323,-1.3048555407457052,-0.1616740971803665,-0.1035236939787864,0.4054073691368103,5.7100982666015625,-59.98183441162109,2.3808326721191406
1700006757095820500,0.8774865988850593,-4.279986765184998,-1.022394543774426,-0.2008744776248932,-0.0601649470627307,0.4097578227519989,5.7910003662109375,-59.80701446533203,2.63614273071289
1700006757105765600,0.3002560352504253,-4.353716018262506,-0.2847199914118274,-0.2119369804859161,0.0001284880563616,0.4120207130908966,5.951972961425781,-59.90817260742188,2.586437225341797
1700006757115710700,-0.3310032018221914,-4.259639558205008,0.3399557390846311,-0.2256560921669006,0.0696487501263618,0.3971944153308868,6.030975341796875,-59.99118423461914,2.6447715759277344
1700006757125656600,-0.3501651445403695,-4.277684917983413,0.5441317559028044,-0.2440268397331237,0.0947658270597457,0.371595561504364,6.0657501220703125,-60.084354400634766,2.734535217285156
1700006757135601700,0.3104895522341132,-4.097931577423215,0.37623233660236,-0.2581012547016144,0.0969869941473007,0.3596121966838836,6.31036376953125,-60.141075134277344,2.849189758300781
1700006757145546800,0.5610650262534618,-3.5310780308961864,0.174697299279645,-0.2514548003673553,0.1148972883820533,0.3463680446147918,6.897071838378906,-60.1568717956543,2.8791236877441406
1700006757155491600,0.0713093324542045,-3.0007413203835487,0.287876738409698,-0.2591091096401214,0.1313603222370147,0.3248781263828277,7.031051635742188,-60.21864318847656,2.8162765502929688
1700006757165436700,-0.2361504966951906,-2.550354929420352,0.3971394790200516,-0.2837526798248291,0.1335118860006332,0.2980939149856567,7.562263488769531,-60.16656875610352,2.7642555236816406
1700006757175381800,-0.4457810891248285,-1.8929338077396156,0.5767553838709369,-0.3045285642147064,0.1620941162109375,0.2702962458133697,7.83148193359375,-60.37859344482422,3.022621154785156
1700006757185327600,-0.860336726641655,-1.0709382099300622,0.9112956372454762,-0.315800666809082,0.2148329615592956,0.2475094199180603,8.007728576660156,-60.50311279296875,3.3002166748046875
1700006757195272700,-1.3016633205756545,-0.2817196770846844,1.2213672563284634,-0.3267858922481537,0.2769489586353302,0.2006496638059616,7.89398193359375,-60.567359924316406,3.5819244384765625
1700006757205217500,-1.4929811344623565,0.3333820597827434,1.426796889936924,-0.3193578124046325,0.3425135612487793,0.1321014910936355,8.104293823242188,-60.80240249633789,3.4950942993164062
1700006757215163000,-1.5202411895707248,0.7890525286287069,1.570610463718325,-0.3111196756362915,0.4149780869483948,0.0549777746200561,8.274078369140625,-60.82661819458008,3.3933067321777344
1700006757225107700,-1.6754479717649515,0.9776835876494644,1.6533897230833767,-0.3136502206325531,0.4825661778450012,-0.0252776499837636,7.9829559326171875,-60.720821380615234,3.5641746520996094
1700006757235052500,-1.6978855751529336,1.015619058290124,1.6746126899845897,-0.3181802332401275,0.524846613407135,-0.1112665757536888,8.291603088378906,-60.84252166748047,3.539047241210937
