time,seconds_elapsed,z,y,x
1700006751029262600,0.0402626953125,-65.7630386352539,-10.4501953125,-3.632282257080078
1700006751039207400,0.05020751953125,-65.8013687133789,-10.23305892944336,-3.6762313842773438
1700006751049152500,0.060152587890625,-65.82076263427734,-10.313179016113281,-3.7322921752929688
1700006751059097600,0.07009765625,-65.73184967041016,-10.365379333496094,-3.508739471435547
1700006751069043500,0.08004345703125,-65.43999481201172,-10.414020538330078,-3.3351593017578125
1700006751078988500,0.089988525390625,-65.59290313720703,-10.218616485595703,-3.6254959106445312
1700006751088933400,0.099933349609375,-65.94275665283203,-10.185184478759766,-3.5341148376464844
1700006751098878700,0.109878662109375,-65.69426727294922,-9.911914825439453,-3.789936065673828
1700006751108823600,0.119823486328125,-65.75487518310547,-9.463115692138672,-3.8453025817871094
1700006751118768400,0.129768310546875,-65.88314056396484,-9.342304229736328,-3.7716140747070312
1700006751128714500,0.139714599609375,-65.92266082763672,-9.097408294677734,-3.979114532470703
1700006751138659600,0.14965966796875,-65.80086517333984,-8.909812927246094,-3.9490509033203125
1700006751148604700,0.159604736328125,-66.1413345336914,-8.61844253540039,-4.0100860595703125
1700006751158549500,0.169549560546875,-65.9103775024414,-8.453197479248047,-3.7700233459472656
1700006751168494300,0.179494384765625,-66.0796890258789,-8.249099731445312,-3.870471954345703
1700006751178440400,0.1894404296875,-66.1496810913086,-8.216358184814453,-3.7290992736816406
1700006751188385500,0.199385498046875,-66.25765228271484,-8.136478424072266,-3.8106422424316406
1700006751198330400,0.209330322265625,-66.10897064208984,-8.161140441894531,-3.8754501342773438
1700006751208275500,0.219275390625,-66.2178726196289,-8.154525756835938,-3.950428009033203
1700006751218220500,0.229220458984375,-66.12677764892578,-8.169124603271484,-4.003929138183594
1700006751228165600,0.23916552734375,-66.22863006591797,-7.912212371826172,-3.7241058349609375
1700006751238111500,0.249111572265625,-66.4930191040039,-8.16973876953125,-3.651592254638672
1700006751248056300,0.259056396484375,-66.41080474853516,-8.268009185791016,-3.892559051513672
1700006751258001700,0.269001708984375,-66.04248809814453,-8.149345397949219,-4.031108856201172
1700006751267946500,0.278946533203125,-65.80512237548828,-8.115570068359375,-4.3370361328125
1700006751277891300,0.288891357421875,-66.06836700439453,-8.216983795166016,-4.028038024902344
1700006751287837400,0.29883740234375,-65.8572769165039,-8.33095932006836,-4.156711578369141
1700006751297782500,0.308782470703125,-66.20098114013672,-8.145942687988281,-4.444610595703125
1700006751307727600,0.3187275390625,-66.21793365478516,-8.059749603271484,-4.3880157470703125
1700006751317672400,0.32867236328125,-65.79280853271484,-8.013442993164062,-4.219291687011719
1700006751327617300,0.3386171875,-66.20125579833984,-8.080013275146484,-4.039817810058594
1700006751337563400,0.3485634765625,-65.99564361572266,-7.982181549072266,-4.023319244384766
1700006751347508500,0.358508544921875,-66.2238540649414,-7.971202850341797,-3.783733367919922
1700006751357453600,0.36845361328125,-66.00682830810547,-7.692317962646484,-3.55615234375
1700006751367398400,0.3783984375,-65.76276397705078,-7.714061737060547,-3.435314178466797
1700006751377343500,0.388343505859375,-65.8299789428711,-7.5322113037109375,-3.281208038330078
1700006751387288600,0.39828857421875,-65.82178497314453,-7.440555572509766,-3.226299285888672
1700006751397234400,0.408234375,-65.71503448486328,-7.617362976074219,-3.052032470703125
1700006751407179500,0.418179443359375,-65.40093231201172,-7.257102966308594,-3.0812034606933594
1700006751417124600,0.42812451171875,-65.69454193115234,-7.260913848876953,-3.2015342712402344
1700006751427069400,0.4380693359375,-65.94690704345703,-6.998256683349609,-3.379558563232422
1700006751437014500,0.4480146484375,-65.71192169189453,-6.739665985107422,-3.1089553833007812
1700006751446960400,0.45796044921875,-65.44292449951172,-6.746757507324219,-3.2673988342285156
1700006751456905700,0.46790576171875,-65.46166229248047,-6.706508636474609,-3.2425994873046875
1700006751466850600,0.4778505859375,-65.60298919677734,-6.556705474853516,-3.111663818359375
1700006751476795400,0.48779541015625,-65.64386749267578,-6.569435119628906,-3.250823974609375
1700006751486740500,0.497740478515625,-65.87566375732422,-6.718208312988281,-3.088134765625
1700006751496685600,0.507685546875,-65.62520599365234,-6.7790985107421875,-3.4412574768066406
1700006751506631700,0.517631591796875,-65.63553619384766,-6.743648529052734,-3.591899871826172
1700006751516576500,0.527576416015625,-65.4984359741211,-6.463169097900391,-3.6365394592285156
1700006751526521300,0.537521240234375,-65.57311248779297,-6.567352294921875,-4.025913238525391
1700006751536466700,0.547466796875,-65.41934967041016,-6.573963165283203,-4.3182220458984375
1700006751546411500,0.55741162109375,-65.79718780517578,-6.5012664794921875,-4.514286041259766
1700006751556357600,0.567357666015625,-65.67378997802734,-6.434322357177734,-4.808383941650391
1700006751566302500,0.577302490234375,-65.25287628173828,-6.264434814453125,-4.864349365234375
1700006751576247600,0.58724755859375,-65.3850326538086,-6.14129638671875,-4.908866882324219
1700006751586192600,0.597192626953125,-64.9267807006836,-6.182826995849609,-5.014509201049805
1700006751596137500,0.607137451171875,-64.93802642822266,-6.249324798583984,-5.354829788208008
1700006751606082600,0.61708251953125,-65.2560806274414,-6.466461181640625,-5.429496765136719
1700006751616028700,0.627028564453125,-65.24822235107422,-6.790714263916016,-5.311775207519531
1700006751625973500,0.636973388671875,-65.32515716552734,-6.824882507324219,-5.279962539672852
1700006751635918600,0.646918701171875,-65.31514739990234,-7.051597595214844,-5.11949348449707
1700006751645863400,0.656863525390625,-64.9161605834961,-7.198219299316406,-5.09825325012207
1700006751655808500,0.66680859375,-64.9565658569336,-7.2895660400390625,-5.135980606079102
1700006751665754600,0.676754638671875,-65.13248443603516,-7.239826202392578,-5.204648971557617
1700006751675699500,0.686699462890625,-64.97399139404297,-7.089122772216797,-5.430461883544922
1700006751685644500,0.69664453125,-65.26305389404297,-6.8569488525390625,-5.610570907592773
1700006751695589600,0.706589599609375,-65.6629409790039,-6.7355804443359375,-5.739597320556641
1700006751705534500,0.716534423828125,-65.35454559326172,-6.346931457519531,-5.824403762817383
1700006751715479600,0.7264794921875,-65.35884857177734,-6.026416778564453,-5.802759170532227
1700006751725425400,0.73642529296875,-65.19202423095703,-5.859722137451172,-5.490732192993164
1700006751735370500,0.74637060546875,-65.42815399169922,-5.491142272949219,-5.154209136962891
1700006751745315600,0.756315673828125,-65.2968521118164,-5.349201202392578,-4.74351692199707
1700006751755260400,0.766260498046875,-65.52449798583984,-5.243244171142578,-4.494449615478516
1700006751765205500,0.77620556640625,-65.55562591552734,-5.136466979980469,-4.069435119628906
1700006751775151600,0.786151611328125,-65.69609832763672,-5.349361419677734,-3.4345130920410156
1700006751785096400,0.796096435546875,-65.60210418701172,-5.500446319580078,-3.1231346130371094
1700006751795041500,0.80604150390625,-65.64765167236328,-5.693805694580078,-2.724761962890625
1700006751804986400,0.815986328125,-65.87889862060547,-5.785961151123047,-2.463653564453125
1700006751814931700,0.825931640625,-65.97870635986328,-6.216770172119141,-2.2696914672851562
1700006751824876500,0.83587646484375,-65.94017791748047,-6.5247344970703125,-1.9337043762207031
1700006751834822400,0.845822509765625,-65.90349578857422,-6.820018768310547,-1.5409049987792969
1700006751844767500,0.855767578125,-66.17241668701172,-7.182239532470703,-1.1727561950683594
1700006751854712600,0.865712646484375,-66.12425994873047,-7.490093231201172,-1.0956954956054688
1700006751864657400,0.875657470703125,-66.17867279052734,-7.742927551269531,-1.0598564147949219
1700006751874602500,0.8856025390625,-65.78617095947266,-7.980613708496094,-1.1029891967773438
1700006751884548400,0.89554833984375,-66.12133026123047,-8.042407989501953,-1.290130615234375
1700006751894493700,0.90549365234375,-66.34423065185547,-8.005634307861328,-0.4463691711425781
1700006751904438500,0.9154384765625,-65.95174407958984,-8.213336944580078,-0.2537879943847656
1700006751914383400,0.92538330078125,-66.07035064697266,-8.313995361328125,-0.12972640991210938
1700006751924328400,0.935328369140625,-66.4324722290039,-8.415355682373047,-0.3678436279296875
1700006751934273500,0.9452734375,-66.33563995361328,-8.531085968017578,0.16065216064453125
1700006751944219600,0.9552197265625,-66.2474136352539,-8.575374603271484,0.40451812744140625
1700006751954164500,0.96516455078125,-66.20079803466797,-8.777557373046875,0.7159767150878906
1700006751964109300,0.975109375,-66.23078155517578,-8.968441009521484,0.9931297302246094
1700006751974055200,0.98505517578125,-66.13434600830078,-8.953178405761719,1.4528350830078125
1700006751984000300,0.995000244140625,-66.3947525024414,-9.31744384765625,1.9232139587402344
1700006751993946400,1.0049462890625,-66.47093963623047,-9.796924591064453,2.2220077514648438
1700006752003891200,1.01489111328125,-66.27294158935547,-10.253849029541016,2.7866744995117188
1700006752013836300,1.024836181640625,-66.46167755126953,-10.581562042236328,3.3364830017089844
1700006752023781400,1.034781494140625,-66.56221771240234,-10.856536865234375,3.793567657470703
1700006752033726200,1.044726318359375,-66.76705169677734,-11.410999298095703,4.278602600097656
1700006752043671300,1.05467138671875,-66.82372283935547,-11.945232391357422,4.706840515136719
1700006752053617200,1.0646171875,-67.12183380126953,-12.465789794921875,5.012981414794922
1700006752063562200,1.074562255859375,-66.76447296142578,-12.990253448486328,5.3531036376953125
1700006752073507300,1.08450732421875,-66.81769561767578,-13.656875610351562,5.551914215087891
1700006752083452200,1.0944521484375,-66.7593765258789,-14.334785461425781,5.582374572753906
1700006752093397500,1.1043974609375,-66.7660903930664,-15.146453857421875,6.016593933105469
1700006752103343400,1.11434326171875,-66.78809356689453,-15.455448150634766,6.3301239013671875
1700006752113288200,1.1242880859375,-66.91214752197266,-15.84420394897461,6.38818359375
1700006752123233300,1.1342333984375,-66.78197479248047,-16.188175201416016,6.724895477294922
1700006752133178000,1.14417822265625,-67.10869598388672,-16.457202911376953,7.088287353515625
1700006752143123200,1.154123291015625,-67.01110076904297,-16.743511199951172,7.370025634765625
1700006752153068300,1.164068359375,-66.86534881591797,-17.22738265991211,7.584205627441406
1700006752163014100,1.17401416015625,-66.90497589111328,-17.780799865722656,8.078231811523438
1700006752172959200,1.183959228515625,-66.68042755126953,-18.459861755371094,8.204517364501953
1700006752182904300,1.193904296875,-66.29598236083984,-19.370452880859375,8.464279174804688
1700006752192849200,1.20384912109375,-66.1382064819336,-20.521202087402344,9.009475708007812
1700006752202794200,1.213794189453125,-65.58721160888672,-21.934200286865234,9.366523742675781
1700006752212740000,1.223739990234375,-64.76897430419922,-23.51885986328125,9.331127166748047
1700006752222685400,1.233685546875,-63.859031677246094,-25.560680389404297,9.12204360961914
1700006752232630300,1.24363037109375,-62.70270538330078,-27.94684600830078,8.611507415771484
1700006752242575000,1.2535751953125,-61.582618713378906,-30.410400390625,7.750007629394531
1700006752252520400,1.2635205078125,-59.99701690673828,-33.25749206542969,6.653564453125
1700006752262466300,1.27346630859375,-58.08179473876953,-36.08869934082031,4.994102478027344
1700006752272411400,1.283411376953125,-56.036964416503906,-39.01936340332031,3.3716278076171875
1700006752282356200,1.293356201171875,-54.02405548095703,-41.90777587890625,1.7292366027832031
1700006752292301000,1.303301025390625,-51.51073455810547,-44.69696807861328,0.19565582275390625
1700006752302246400,1.313246337890625,-48.338600158691406,-47.48799133300781,-0.8844261169433594
1700006752312191200,1.323191162109375,-45.27173614501953,-49.88574981689453,-1.8500480651855469
1700006752322137300,1.333137451171875,-42.33332061767578,-52.13990020751953,-2.4931259155273438
1700006752332082200,1.343082275390625,-39.943763732910156,-53.901100158691406,-3.2112083435058594
1700006752342027300,1.35302734375,-36.926795959472656,-55.72484588623047,-4.087089538574219
1700006752351972400,1.362972412109375,-33.940086364746094,-56.8402099609375,-4.4656219482421875
1700006752361917200,1.372917236328125,-31.747520446777344,-57.73423385620117,-4.987190246582031
1700006752371862300,1.3828623046875,-29.570533752441406,-58.592403411865234,-5.327505111694336
1700006752381808400,1.392808349609375,-27.420028686523438,-59.09661102294922,-5.377357482910156
1700006752391753200,1.402753173828125,-25.28209686279297,-59.75835037231445,-5.469539642333984
1700006752401698300,1.4126982421875,-23.681068420410156,-60.2565803527832,-5.793935775756836
1700006752411643400,1.422643310546875,-22.27472686767578,-60.6469841003418,-5.540487289428711
1700006752421588200,1.432588134765625,-20.174850463867188,-61.10080337524414,-5.458255767822266
1700006752431534300,1.442534423828125,-18.537689208984375,-61.3558235168457,-5.578866958618164
1700006752441479200,1.452479248046875,-17.604156494140625,-61.415199279785156,-5.841020584106445
1700006752451424300,1.46242431640625,-16.245742797851562,-61.458152770996094,-5.301488876342773
1700006752461369300,1.472369384765625,-15.136642456054688,-61.61249542236328,-4.759540557861328
1700006752471314200,1.482314208984375,-13.788063049316406,-61.97118377685547,-4.4977874755859375
1700006752481259300,1.49225927734375,-12.649734497070312,-61.99211120605469,-4.4205169677734375
1700006752491205000,1.502205078125,-11.673141479492188,-62.27214431762695,-4.18499755859375
1700006752501150500,1.512150390625,-10.566909790039062,-62.11222839355469,-4.208915710449219
1700006752511095300,1.52209521484375,-9.401123046875,-62.219482421875,-3.8628768920898438
1700006752521040100,1.5320400390625,-7.734443664550781,-62.530418395996094,-3.3728866577148438
1700006752530985500,1.5419853515625,-6.810829162597656,-62.6046142578125,-2.6044540405273438
1700006752540931300,1.551931396484375,-5.6396331787109375,-62.60369110107422,-1.4548759460449219
1700006752550876400,1.56187646484375,-4.113677978515625,-62.743961334228516,-0.7734718322753906
1700006752560821200,1.5718212890625,-2.4718399047851562,-62.74448776245117,-0.07096099853515625
1700006752570766300,1.581766357421875,-0.6288375854492188,-62.8339958190918,0.79779052734375
1700006752580711400,1.59171142578125,0.7148361206054688,-62.795101165771484,1.7695198059082031
1700006752590656300,1.60165625,1.9829788208007812,-62.704124450683594,2.557037353515625
1700006752600602000,1.61160205078125,2.7110519409179688,-62.390968322753906,3.2079315185546875
1700006752610547200,1.621547119140625,2.5349960327148438,-62.2987060546875,3.9328689575195312
1700006752620492300,1.6314921875,1.8303909301757812,-62.46237564086914,4.376899719238281
1700006752630437400,1.641437255859375,1.212860107421875,-62.41392135620117,5.203319549560547
1700006752640382200,1.65138232421875,0.277801513671875,-62.305545806884766,5.385986328125
1700006752650328000,1.661328125,0.36554718017578125,-62.216976165771484,5.833003997802734
1700006752660273400,1.6712734375,1.3269119262695312,-61.79555892944336,5.724399566650391
1700006752670218200,1.68121826171875,2.4474716186523438,-61.75929260253906,6.203594207763672
1700006752680163300,1.691163330078125,3.6551055908203125,-61.450965881347656,6.323757171630859
1700006752690108400,1.7011083984375,4.5135955810546875,-61.243072509765625,6.344814300537109
1700006752700053200,1.71105322265625,5.034126281738281,-61.21732711791992,6.384395599365234
1700006752709999400,1.720999267578125,5.172233581542969,-61.2469482421875,6.457206726074219
1700006752719944200,1.730944091796875,5.314186096191406,-61.104129791259766,6.4852294921875
1700006752729889300,1.74088916015625,6.276191711425781,-61.06675720214844,6.4215087890625
1700006752739834400,1.75083447265625,6.2508697509765625,-60.94666290283203,6.116207122802734
1700006752749779200,1.760779296875,6.787605285644531,-60.96456527709961,6.097705841064453
1700006752759725300,1.770725341796875,7.481903076171875,-60.8039665222168,6.016452789306641
1700006752769670100,1.780670166015625,8.142707824707031,-60.64407730102539,5.908565521240234
1700006752779615200,1.790615234375,8.689170837402344,-60.47087478637695,5.797931671142578
1700006752789560300,1.800560302734375,8.900611877441406,-60.41853713989258,5.937541961669922
1700006752799505200,1.810505126953125,9.143424987792969,-60.394676208496094,5.941143035888672
1700006752809450200,1.8204501953125,9.208976745605469,-60.4957160949707,5.589561462402344
1700006752819396400,1.830396240234375,9.762191772460938,-60.28513717651367,5.356071472167969
1700006752829341200,1.840341064453125,10.345741271972656,-60.12928771972656,5.454143524169922
1700006752839286300,1.850286376953125,10.463470458984375,-59.88811492919922,5.518241882324219
1700006752849231400,1.8602314453125,10.665420532226562,-59.97039794921875,5.615962982177734
1700006752859176200,1.87017626953125,11.243316650390625,-60.035377502441406,5.514751434326172
1700006752869122300,1.880122314453125,11.655204772949219,-59.88011932373047,5.091865539550781
1700006752879067100,1.890067138671875,11.49462890625,-59.62884521484375,4.642097473144531
1700006752889012200,1.90001220703125,11.33447265625,-59.758392333984375,4.1740570068359375
1700006752898957300,1.909957275390625,11.105712890625,-59.779640197753906,4.0504302978515625
1700006752908902100,1.919902099609375,11.273979187011719,-59.58625030517578,3.808879852294922
1700006752918847200,1.92984716796875,11.113121032714844,-59.491607666015625,3.518646240234375
1700006752928793000,1.93979296875,10.437728881835938,-59.58308792114258,3.3930435180664062
1700006752938738400,1.949738525390625,10.412910461425781,-59.64750671386719,3.3832321166992188
1700006752948683300,1.959683349609375,9.968879699707031,-59.72867202758789,3.5397491455078125
1700006752958628000,1.969628173828125,9.175209045410156,-59.878868103027344,3.5450515747070312
1700006752968572700,1.97957275390625,8.448837280273438,-59.724056243896484,3.475452423095703
1700006752978517500,1.989517578125,8.258598327636719,-59.870643615722656,3.0209579467773438
1700006752988463600,1.999463623046875,8.127586364746094,-59.893131256103516,3.148162841796875
1700006752998408400,2.009408447265625,7.6114654541015625,-59.943336486816406,3.3016929626464844
1700006753008353800,2.019353759765625,7.1925506591796875,-59.67693328857422,3.266498565673828
1700006753018298600,2.029298583984375,6.799674987792969,-59.72895812988281,3.3218040466308594
1700006753028243500,2.039243408203125,6.6570587158203125,-59.75347137451172,3.5607337951660156
1700006753038189600,2.049189453125,6.277244567871094,-59.898250579833984,3.778362274169922
1700006753048134700,2.059134765625,6.092979431152344,-59.75503921508789,4.0051422119140625
1700006753058079500,2.06907958984375,5.7754364013671875,-59.753578186035156,4.204029083251953
1700006753068024600,2.079024658203125,5.288108825683594,-59.788509368896484,4.817829132080078
1700006753077969700,2.0889697265625,5.1562957763671875,-59.64435958862305,5.149635314941406
1700006753087914800,2.098914794921875,4.9077911376953125,-59.67482376098633,5.404941558837891
1700006753097860600,2.108860595703125,4.914642333984375,-59.45710754394531,6.121265411376953
1700006753107805400,2.118805419921875,4.754203796386719,-59.593048095703125,6.320423126220703
1700006753117750500,2.12875048828125,4.027801513671875,-59.4824104309082,6.680885314941406
1700006753127695600,2.138695556640625,3.8127593994140625,-59.55250549316406,7.011543273925781
1700006753137640700,2.148640625,3.4119873046875,-59.39854049682617,7.312610626220703
1700006753147585500,2.15858544921875,2.8728713989257812,-59.33799743652344,7.5560760498046875
1700006753157531400,2.168531494140625,2.4034805297851562,-59.43350601196289,8.191993713378906
1700006753167476700,2.178476806640625,1.8857345581054688,-59.443115234375,8.32568359375
1700006753177421600,2.188421630859375,1.7153167724609375,-59.37080383300781,8.581062316894531
1700006753187366400,2.198366455078125,1.3677215576171875,-59.070674896240234,8.817340850830078
1700006753197311700,2.208311767578125,1.1884002685546875,-58.807979583740234,9.076045989990234
1700006753207257600,2.218257568359375,0.6863327026367188,-58.82994079589844,9.399520874023438
1700006753217202700,2.22820263671875,0.170867919921875,-58.86842346191406,9.883216857910156
1700006753227147500,2.2381474609375,0.23602294921875,-58.67681884765625,10.0927734375
1700006753237092600,2.248092529296875,0.04874420166015625,-58.93689727783203,10.373157501220703
1700006753247037700,2.25803759765625,-0.23664093017578125,-58.617244720458984,10.642341613769531
1700006753256983600,2.267983642578125,-0.46877288818359375,-58.4073486328125,11.108062744140625
1700006753266928600,2.2779287109375,-0.7852249145507812,-58.386722564697266,11.442634582519531
1700006753276873500,2.28787353515625,-0.39505767822265625,-58.22962188720703,11.53213882446289
1700006753286818600,2.297818603515625,-0.47769927978515625,-58.102691650390625,11.92251205444336
1700006753296763600,2.307763671875,0.1136016845703125,-58.24005126953125,11.949398040771484
1700006753306708500,2.31770849609375,0.357330322265625,-57.9788703918457,12.261608123779297
1700006753316654600,2.327654541015625,0.8727340698242188,-57.832305908203125,12.653141021728516
1700006753326599700,2.337599609375,0.720458984375,-57.80653762817383,12.98037338256836
1700006753336544500,2.34754443359375,1.008087158203125,-57.723052978515625,13.46804428100586
1700006753346489600,2.357489501953125,1.5203933715820312,-57.60874557495117,13.7249755859375
1700006753356434700,2.3674345703125,1.64892578125,-57.670310974121094,13.934844970703125
1700006753366379500,2.377379638671875,1.664337158203125,-57.62038040161133,14.244571685791016
1700006753376325600,2.38732568359375,1.3429183959960938,-57.428611755371094,14.653217315673828
1700006753386270500,2.3972705078125,1.318389892578125,-57.4862060546875,15.04916763305664
1700006753396215600,2.407215576171875,0.8345870971679688,-57.50737762451172,15.750667572021484
1700006753406160600,2.41716064453125,0.8616485595703125,-57.530269622802734,16.138938903808594
1700006753416105500,2.42710546875,0.9234619140625,-57.461639404296875,16.24584197998047
1700006753426051600,2.437051513671875,0.94970703125,-57.429203033447266,16.40865707397461
1700006753435996400,2.446996337890625,0.9662399291992188,-57.49993133544922,16.629192352294922
1700006753445941800,2.456941650390625,1.4641647338867188,-57.49684143066406,16.804786682128906
1700006753455886600,2.466886474609375,1.5565872192382812,-57.617130279541016,16.92763900756836
1700006753465831400,2.47683154296875,1.4884262084960938,-57.52802658081055,16.751651763916016
1700006753475776800,2.48677685546875,1.54608154296875,-57.60349655151367,16.893577575683594
1700006753485722600,2.49672265625,1.77374267578125,-57.822021484375,16.84613800048828
1700006753495667700,2.506667724609375,1.6360015869140625,-57.68522644042969,16.874488830566406
1700006753505612500,2.516612548828125,1.94635009765625,-57.996883392333984,16.786312103271484
1700006753515557600,2.5265576171875,1.5117034912109375,-58.165225982666016,16.794158935546875
1700006753525502700,2.536502685546875,1.638702392578125,-58.351226806640625,16.645687103271484
1700006753535447600,2.546447509765625,1.3100509643554688,-58.33125686645508,16.724498748779297
1700006753545393700,2.5563935546875,1.2117080688476562,-58.193302154541016,16.71288299560547
1700006753555338500,2.56633837890625,1.3124771118164062,-58.662506103515625,16.258235931396484
1700006753565283600,2.57628369140625,1.416748046875,-58.586524963378906,16.22350311279297
1700006753575228700,2.586228759765625,0.9047470092773438,-58.686546325683594,15.899749755859375
1700006753585173500,2.596173583984375,0.7006607055664062,-58.76572036743164,15.5242919921875
1700006753595119600,2.60611962890625,0.3776702880859375,-58.665122985839844,15.188850402832031
1700006753605064700,2.616064697265625,0.10074615478515625,-58.616851806640625,15.231056213378906
1700006753615009500,2.626009521484375,0.047637939453125,-58.9223747253418,15.21915054321289
1700006753624954600,2.63595458984375,-0.12516021728515625,-58.97117614746094,14.85226821899414
1700006753634899700,2.645899658203125,-0.6751480102539062,-59.173431396484375,14.57876205444336
1700006753644844500,2.655844482421875,-0.7129974365234375,-59.05207443237305,14.498977661132812
1700006753654790700,2.665790771484375,-0.728057861328125,-59.236148834228516,14.174640655517578
1700006753664735500,2.675735595703125,-0.6820297241210938,-59.431243896484375,14.143775939941406
1700006753674680800,2.685680908203125,-1.0543212890625,-59.365196228027344,13.580360412597656
1700006753684625700,2.695625732421875,-1.02777099609375,-59.42750549316406,13.676414489746094
1700006753694570500,2.705570556640625,-1.0193023681640625,-59.570980072021484,13.61056137084961
1700006753704515600,2.715515625,-1.1761016845703125,-59.25276565551758,13.482231140136719
1700006753714461400,2.72546142578125,-1.2956161499023438,-59.3272705078125,13.447891235351562
1700006753724406500,2.735406494140625,-1.1795578002929688,-59.35130310058594,13.137775421142578
1700006753734351600,2.7453515625,-1.01373291015625,-59.4142951965332,12.856510162353516
1700006753744296400,2.75529638671875,-1.0890274047851562,-59.55611801147461,12.83432388305664
1700006753754241800,2.76524169921875,-1.3643646240234375,-59.484615325927734,12.656944274902344
1700006753764187600,2.775187744140625,-1.4814453125,-59.46126174926758,12.865299224853516
1700006753774132500,2.785132568359375,-1.57110595703125,-59.43112564086914,12.921859741210938
1700006753784077600,2.79507763671875,-1.6733856201171875,-59.346519470214844,12.741676330566406
1700006753794022700,2.805022705078125,-1.62872314453125,-59.17546463012695,12.765323638916016
1700006753803967700,2.8149677734375,-1.6653213500976562,-59.472991943359375,12.631160736083984
1700006753813912600,2.82491259765625,-1.4806365966796875,-59.229496002197266,12.568775177001953
1700006753823858400,2.8348583984375,-1.5967025756835938,-59.04630661010742,12.899185180664062
1700006753833803800,2.8448037109375,-1.9267349243164062,-58.96816635131836,12.762123107910156
1700006753843748600,2.85474853515625,-2.4264450073242188,-59.027339935302734,12.839115142822266
1700006753853693400,2.864693359375,-2.5291519165039062,-59.066612243652344,12.948673248291016
1700006753863638500,2.874638427734375,-2.7486801147460938,-58.859283447265625,13.131072998046875
1700006753873584400,2.88458447265625,-3.3467483520507812,-58.66659927368164,13.221660614013672
1700006753883529700,2.89452978515625,-3.6708450317382812,-58.44609832763672,13.283390045166016
1700006753893474600,2.904474609375,-3.9124679565429688,-58.242984771728516,13.551700592041016
1700006753903419400,2.91441943359375,-3.5954971313476562,-58.23741912841797,13.472488403320312
1700006753913364700,2.92436474609375,-3.6641693115234375,-58.186702728271484,13.309761047363281
1700006753923309600,2.9343095703125,-3.8338546752929688,-58.078269958496094,13.354869842529297
1700006753933255700,2.944255615234375,-3.6972503662109375,-58.003868103027344,13.267333984375
1700006753943200500,2.954200439453125,-3.8128814697265625,-57.8806266784668,12.701950073242188
1700006753953145600,2.9641455078125,-3.815521240234375,-58.143829345703125,12.536754608154297
1700006753963090700,2.974090576171875,-3.8369293212890625,-58.073089599609375,12.047630310058594
1700006753973035800,2.984035888671875,-3.348846435546875,-58.135292053222656,11.473854064941406
1700006753982980600,2.993980712890625,-3.2910842895507812,-58.13528060913086,11.212944030761719
1700006753992926700,3.0039267578125,-3.0788040161132812,-58.05872344970703,10.967456817626953
1700006754002871800,3.013871826171875,-3.0539627075195312,-58.29738998413086,10.640758514404297
1700006754012816600,3.023816650390625,-3.0317840576171875,-58.43592071533203,10.575675964355469
1700006754022761700,3.03376171875,-3.3138809204101562,-58.512672424316406,10.15970230102539
1700006754032706800,3.043706787109375,-2.7595977783203125,-58.70191192626953,9.820602416992188
1700006754042653000,3.05365283203125,-2.3411407470703125,-58.768455505371094,9.325714111328125
1700006754052597800,3.06359765625,-2.1781463623046875,-59.027774810791016,8.820747375488281
1700006754062542600,3.07354248046875,-1.7437591552734375,-59.25471115112305,8.769542694091797
1700006754072488000,3.083488037109375,-1.96685791015625,-59.32611846923828,8.148597717285156
1700006754082432800,3.093432861328125,-1.740203857421875,-59.3829460144043,7.655384063720703
1700006754092377600,3.103377685546875,-1.220703125,-59.57622146606445,7.236553192138672
1700006754102323700,3.11332373046875,-1.18939208984375,-59.57447814941406,7.048492431640625
1700006754112268800,3.123268798828125,-0.6448211669921875,-59.57395935058594,6.97265625
1700006754122214000,3.1332138671875,-0.47763824462890625,-59.68409729003906,6.710670471191406
1700006754132158700,3.14315869140625,-0.29299163818359375,-59.64816665649414,6.3022613525390625
1700006754142103600,3.153103515625,-0.32550048828125,-59.8852653503418,5.920295715332031
1700006754152049000,3.163048828125,-0.4636993408203125,-60.0413932800293,5.664600372314453
1700006754161994800,3.172994873046875,-0.33917236328125,-60.13762664794922,5.5691680908203125
1700006754171939800,3.18293994140625,-0.27988433837890625,-59.973331451416016,5.259479522705078
1700006754181884700,3.192884765625,0.27896881103515625,-59.962833404541016,4.957069396972656
1700006754191829800,3.202829833984375,-0.02138519287109375,-60.11806106567383,4.777385711669922
1700006754201774800,3.21277490234375,-0.089019775390625,-60.233970642089844,4.735382080078125
1700006754211720700,3.222720703125,-0.40499114990234375,-60.164947509765625,4.546794891357422
1700006754221665800,3.232665771484375,-0.6571578979492188,-60.26525115966797,4.342689514160156
1700006754231611000,3.24261083984375,-0.993927001953125,-60.2140998840332,4.205249786376953
1700006754241555700,3.2525556640625,-1.0635528564453125,-60.0873908996582,4.279777526855469
1700006754251500800,3.262500732421875,-1.5762176513671875,-60.32778549194336,3.9713592529296875
1700006754261446000,3.27244580078125,-1.74786376953125,-60.40122604370117,4.102413177490234
1700006754271391700,3.282391845703125,-1.8470001220703125,-60.34400177001953,4.1454010009765625
1700006754281336800,3.2923369140625,-2.0717620849609375,-60.32550048828125,4.131217956542969
1700006754291281700,3.30228173828125,-1.8398208618164062,-60.50555419921875,4.200351715087891
1700006754301226800,3.312226806640625,-2.0400009155273438,-60.649444580078125,4.241664886474609
1700006754311171800,3.322171875,-1.9209976196289062,-60.56027603149414,4.4804840087890625
1700006754321116700,3.33211669921875,-1.603057861328125,-60.50969314575195,4.585472106933594
1700006754331062800,3.342062744140625,-2.16632080078125,-60.61945724487305,4.686676025390625
1700006754341007600,3.352007568359375,-2.0393218994140625,-60.5294075012207,5.049369812011719
1700006754350953000,3.361952880859375,-2.0371322631835938,-60.3994026184082,5.072002410888672
1700006754360897800,3.371897705078125,-2.1018447875976562,-60.31804656982422,5.539470672607422
1700006754370842600,3.381842529296875,-2.3796920776367188,-60.39247131347656,5.455177307128906
1700006754380788700,3.391788818359375,-2.8161239624023438,-60.40884017944336,5.828845977783203
1700006754390733800,3.40173388671875,-2.6926651000976562,-60.28744125366211,6.345867156982422
1700006754400679000,3.411678955078125,-3.1702194213867188,-60.12538146972656,6.1973876953125
1700006754410623700,3.421623779296875,-3.334014892578125,-60.15968322753906,6.698451995849609
1700006754420568800,3.43156884765625,-3.6314468383789062,-60.00748825073242,7.100444793701172
1700006754430514000,3.441513916015625,-4.056396484375,-59.867347717285156,7.679561614990234
1700006754440459800,3.451459716796875,-4.183876037597656,-59.79584884643555,8.05584716796875
1700006754450404900,3.46140478515625,-4.540382385253906,-59.7056884765625,8.27389144897461
1700006754460349700,3.471349609375,-4.659149169921875,-59.445884704589844,8.583786010742188
1700006754470294800,3.481294677734375,-5.002044677734375,-59.538330078125,9.121177673339844
1700006754480239900,3.491239990234375,-5.218818664550781,-59.388755798339844,9.619331359863281
1700006754490185700,3.501185791015625,-5.635124206542969,-59.060935974121094,10.014633178710938
1700006754500130600,3.511130615234375,-5.6499786376953125,-58.842124938964844,10.06441879272461
1700006754510076000,3.521075927734375,-5.8109588623046875,-59.06087112426758,10.53900146484375
1700006754520020700,3.531020751953125,-5.811653137207031,-59.00401306152344,10.794292449951172
1700006754529965800,3.5409658203125,-5.8579254150390625,-59.111934661865234,10.840927124023438
1700006754539911000,3.550910888671875,-6.0313720703125,-58.98318862915039,11.375328063964844
1700006754549856800,3.560856689453125,-5.9983978271484375,-58.99317932128906,11.521202087402344
1700006754559801900,3.5708017578125,-6.085807800292969,-59.05071258544922,11.574146270751953
1700006754569746700,3.58074658203125,-6.158103942871094,-59.27593231201172,11.632038116455078
1700006754579691800,3.59069189453125,-6.150299072265625,-59.384063720703125,11.637828826904297
1700006754589636900,3.600636962890625,-6.2176361083984375,-59.4738655090332,12.061378479003906
1700006754599581700,3.610581787109375,-6.157417297363281,-59.7392578125,11.995536804199219
1700006754609527800,3.62052783203125,-5.8280487060546875,-59.87226486206055,12.135700225830078
1700006754619472600,3.63047265625,-6.132896423339844,-59.99095153808594,12.23116683959961
1700006754629417700,3.640417724609375,-5.918907165527344,-59.99162292480469,12.118099212646484
1700006754639362800,3.65036279296875,-6.080879211425781,-59.96031951904297,11.988754272460938
1700006754649307600,3.6603076171875,-6.260795593261719,-60.070068359375,12.285873413085938
1700006754659253000,3.6702529296875,-6.477783203125,-60.619388580322266,12.344467163085938
1700006754669198800,3.68019873046875,-6.1792449951171875,-60.82682800292969,12.649654388427734
1700006754679143700,3.690143798828125,-6.54791259765625,-60.94434356689453,12.757820129394531
1700006754689088800,3.7000888671875,-6.5028533935546875,-60.97861862182617,12.760498046875
1700006754699033900,3.710033935546875,-6.649208068847656,-61.288719177246094,12.855289459228516
1700006754708978700,3.719978759765625,-6.8802337646484375,-61.49468231201172,13.219867706298828
1700006754718924800,3.7299248046875,-7.117462158203125,-61.39155960083008,13.45931625366211
1700006754728869600,3.73986962890625,-6.6655426025390625,-61.343162536621094,13.63201904296875
1700006754738814700,3.749814697265625,-6.565620422363281,-61.51310348510742,13.729301452636719
1700006754748759800,3.759759765625,-6.6320953369140625,-61.631431579589844,13.92013931274414
1700006754758704600,3.76970458984375,-6.837486267089844,-61.707088470458984,14.264938354492188
1700006754768649700,3.779649658203125,-6.9331512451171875,-61.55055236816406,14.397140502929688
1700006754778595600,3.789595703125,-7.0027923583984375,-61.76179122924805,14.59463119506836
1700006754788541000,3.799541015625,-7.2239532470703125,-61.5435905456543,14.721126556396484
1700006754798485800,3.80948583984375,-7.335716247558594,-61.493309020996094,14.792537689208984
1700006754808430600,3.8194306640625,-7.779876708984375,-61.444984436035156,14.67526626586914
1700006754818376000,3.8293759765625,-7.4357147216796875,-61.43872833251953,14.723060607910156
1700006754828320800,3.83932080078125,-7.407417297363281,-61.49394226074219,14.78676986694336
1700006754838267000,3.849266845703125,-7.7126617431640625,-61.50509262084961,14.587486267089844
1700006754848211700,3.859211669921875,-7.473846435546875,-61.64354705810547,14.746471405029297
1700006754858156800,3.86915673828125,-7.2069091796875,-61.60882568359375,14.66659927368164
1700006754868102000,3.879101806640625,-7.500312805175781,-61.44397735595703,14.635723114013672
1700006754878046700,3.889046630859375,-7.687370300292969,-61.3741569519043,14.809551239013672
1700006754887992800,3.898992919921875,-7.245391845703125,-61.458065032958984,14.582836151123047
1700006754897937700,3.908937744140625,-7.3605194091796875,-61.367088317871094,14.599361419677734
1700006754907882800,3.9188828125,-7.0369720458984375,-61.37959671020508,14.477561950683594
1700006754917827800,3.928827880859375,-6.967124938964844,-61.719425201416016,14.291500091552734
1700006754927772700,3.938772705078125,-6.532646179199219,-61.44396209716797,14.095909118652344
1700006754937717800,3.9487177734375,-6.971870422363281,-61.436397552490234,13.843696594238281
1700006754947662800,3.958662841796875,-6.663764953613281,-61.56703567504883,13.662940979003906
1700006754957608700,3.968608642578125,-6.67742919921875,-61.66390609741211,13.300861358642578
1700006754967553800,3.9785537109375,-6.916755676269531,-61.680702209472656,13.22054672241211
1700006754977499400,3.98849951171875,-6.680076599121094,-61.558311462402344,13.109870910644531
1700006754987444500,3.998444580078125,-6.9173583984375,-61.56660842895508,12.83676528930664
1700006754997389600,4.0083896484375,-6.584938049316406,-61.378013610839844,12.74428939819336
1700006755007334400,4.01833447265625,-6.375556945800781,-61.534820556640625,12.770008087158203
1700006755017280500,4.028280517578125,-6.4384765625,-61.73637008666992,12.67208480834961
1700006755027225600,4.0382255859375,-6.5966339111328125,-61.59856414794922,12.515289306640625
1700006755037170400,4.04817041015625,-6.383506774902344,-61.288299560546875,12.407817840576172
1700006755047115500,4.058115478515625,-6.310676574707031,-61.17637252807617,12.665382385253906
1700006755057060600,4.068060546875,-6.1088409423828125,-60.955745697021484,12.70473861694336
1700006755067006500,4.07800634765625,-6.321479797363281,-60.916324615478516,12.347850799560547
1700006755076951600,4.08795166015625,-6.869606018066406,-60.814537048339844,12.50265121459961
1700006755086896400,4.097896484375,-6.6068267822265625,-60.828147888183594,12.340744018554688
1700006755096841500,4.107841552734375,-6.638877868652344,-60.63890838623047,12.382343292236328
1700006755106786600,4.11778662109375,-6.840278625488281,-60.59967803955078,12.171745300292969
1700006755116731400,4.1277314453125,-6.492889404296875,-60.19647216796875,12.350116729736328
1700006755126677500,4.137677490234375,-6.603874206542969,-59.98029708862305,12.427299499511719
1700006755136622300,4.147622314453125,-6.686805725097656,-59.8248405456543,12.122791290283203
1700006755146567700,4.157567626953125,-6.668006896972656,-59.73265075683594,12.180706024169922
1700006755156512500,4.167512451171875,-6.2150726318359375,-59.504852294921875,12.223857879638672
1700006755166457300,4.177457275390625,-6.200355529785156,-59.585044860839844,12.180992126464844
1700006755176402700,4.187402587890625,-6.179039001464844,-59.64047622680664,11.711280822753906
1700006755186348500,4.1973486328125,-5.6339569091796875,-59.52971649169922,11.511707305908203
1700006755196293600,4.207293701171875,-6.004310607910156,-59.467342376708984,11.300228118896484
1700006755206238500,4.217238525390625,-5.755645751953125,-59.34778594970703,10.972332000732422
1700006755216183300,4.227183349609375,-5.329414367675781,-59.401241302490234,10.946647644042969
1700006755226128600,4.237128662109375,-4.578636169433594,-59.51311492919922,10.67313003540039
1700006755236073500,4.247073486328125,-3.9017333984375,-59.39563751220703,10.319709777832031
1700006755246019300,4.257019287109375,-3.6703414916992188,-59.26301956176758,9.847759246826172
1700006755255964400,4.26696435546875,-3.1411666870117188,-59.30125045776367,9.100090026855469
1700006755265909500,4.276909423828125,-3.2346038818359375,-59.51492691040039,8.912590026855469
1700006755275854600,4.2868544921875,-3.0563735961914062,-59.37803268432617,8.785202026367188
1700006755285799400,4.29679931640625,-3.3408126831054688,-59.3507080078125,8.374549865722656
1700006755295745300,4.306745361328125,-3.2506561279296875,-59.52283477783203,8.1385498046875
1700006755305690600,4.316690673828125,-2.455718994140625,-59.56291961669922,7.636966705322266
1700006755315635500,4.326635498046875,-2.376434326171875,-59.663795471191406,7.205650329589844
1700006755325580300,4.336580322265625,-2.1890106201171875,-59.71728515625,7.126338958740234
1700006755335525600,4.346525634765625,-2.0837936401367188,-59.83663558959961,6.713287353515625
1700006755345470500,4.356470458984375,-1.416839599609375,-59.789432525634766,6.301872253417969
1700006755355416600,4.36641650390625,-1.4403228759765625,-59.75560760498047,6.102733612060547
1700006755365361400,4.376361328125,-1.386810302734375,-59.695743560791016,5.761936187744141
1700006755375306200,4.38630615234375,-1.0497283935546875,-59.69080352783203,5.769996643066406
1700006755385251600,4.39625146484375,-1.1380844116210938,-59.84891128540039,5.439048767089844
1700006755395196400,4.406196533203125,-1.2359237670898438,-59.798744201660156,5.275913238525391
1700006755405141500,4.4161416015625,-1.1609420776367188,-59.75648880004883,5.069530487060547
1700006755415087400,4.42608740234375,-1.131011962890625,-59.875694274902344,4.897613525390625
1700006755425032400,4.436032470703125,-1.3257064819335938,-59.998268127441406,4.691265106201172
1700006755434977500,4.4459775390625,-1.454864501953125,-60.065467834472656,4.6983184814453125
1700006755444922400,4.45592236328125,-1.5252914428710938,-60.07807540893555,4.451702117919922
1700006755454867500,4.465867431640625,-1.5754623413085938,-60.2353401184082,4.206432342529297
1700006755464813600,4.4758134765625,-2.0599441528320312,-60.13433837890625,4.0634002685546875
1700006755474758400,4.48575830078125,-2.0189437866210938,-60.32644271850586,3.9995155334472656
1700006755484703500,4.495703369140625,-1.9717330932617188,-60.43434524536133,3.9385643005371094
1700006755494648600,4.505648681640625,-2.3947525024414062,-60.466365814208984,3.740570068359375
1700006755504593400,4.515593505859375,-2.4402618408203125,-60.516357421875,3.5737152099609375
1700006755514538500,4.52553857421875,-2.6711959838867188,-60.599674224853516,3.4535255432128906
1700006755524484400,4.535484375,-3.06640625,-60.75449752807617,3.542560577392578
1700006755534429400,4.545429443359375,-3.1900253295898438,-60.634986877441406,3.262645721435547
1700006755544374500,4.55537451171875,-3.3721389770507812,-60.7344970703125,3.117462158203125
1700006755554319400,4.5653193359375,-3.4478302001953125,-60.51567077636719,3.353679656982422
1700006755564264400,4.575264404296875,-3.7998199462890625,-60.4779167175293,3.305377960205078
1700006755574209500,4.58520947265625,-3.927093505859375,-60.461334228515625,3.3514938354492188
1700006755584155600,4.59515576171875,-3.9657440185546875,-60.24253845214844,3.1943626403808594
1700006755594100500,4.6051005859375,-4.160850524902344,-60.54515838623047,3.1754684448242188
1700006755604045300,4.61504541015625,-4.426155090332031,-60.48596954345703,3.1486053466796875
1700006755613990700,4.62499072265625,-4.644477844238281,-60.524864196777344,3.124828338623047
1700006755623935500,4.634935546875,-4.7219696044921875,-60.640071868896484,3.1699562072753906
1700006755633880300,4.64488037109375,-5.282875061035156,-60.72701644897461,3.355304718017578
1700006755643826400,4.654826416015625,-5.3482208251953125,-60.43827438354492,3.4540557861328125
1700006755653771500,4.664771484375,-5.805320739746094,-60.50480651855469,3.516876220703125
1700006755663716600,4.674716552734375,-6.0323638916015625,-60.3663330078125,3.4523582458496094
1700006755673661400,4.684661376953125,-6.714302062988281,-60.04631423950195,3.8003921508789062
1700006755683606300,4.694606201171875,-7.2182159423828125,-59.921669006347656,4.257656097412109
1700006755693552400,4.704552490234375,-7.3546905517578125,-59.98377990722656,4.442211151123047
1700006755703497500,4.71449755859375,-7.465843200683594,-59.87809753417969,4.785312652587891
1700006755713442600,4.724442626953125,-8.051780700683594,-59.76274108886719,5.17889404296875
1700006755723387400,4.734387451171875,-8.56256103515625,-59.62258529663086,5.475261688232422
1700006755733332500,4.74433251953125,-9.148406982421875,-59.32341766357422,5.637428283691406
1700006755743277600,4.754277587890625,-9.223220825195312,-59.2760009765625,5.843120574951172
1700006755753223400,4.764223388671875,-9.291831970214844,-59.14737319946289,5.955284118652344
1700006755763168500,4.77416845703125,-9.777496337890625,-59.38462448120117,6.377799987792969
1700006755773113600,4.784113525390625,-9.645767211914062,-59.490440368652344,6.486907958984375
1700006755783058400,4.794058349609375,-9.770301818847656,-59.540184020996094,6.617778778076172
1700006755793003500,4.80400341796875,-9.425621032714844,-59.31203079223633,7.089206695556641
1700006755802948400,4.8139482421875,-9.278823852539062,-59.49966812133789,7.229087829589844
1700006755812894500,4.82389453125,-9.05413818359375,-59.66328048706055,7.41827392578125
1700006755822839600,4.833839599609375,-8.817024230957031,-59.958335876464844,7.6242218017578125
1700006755832784400,4.843784423828125,-8.420600891113281,-59.85675048828125,7.899005889892578
1700006755842729500,4.8537294921875,-8.440185546875,-60.02614974975586,8.029937744140625
1700006755852674600,4.863674560546875,-8.2713623046875,-60.09001541137695,8.548980712890625
1700006755862620700,4.87362060546875,-8.177635192871094,-60.51433563232422,8.692928314208984
1700006755872565500,4.8835654296875,-8.050270080566406,-60.41550064086914,9.134883880615234
1700006755882510300,4.89351025390625,-8.483352661132812,-60.49824523925781,9.426189422607422
1700006755892455700,4.90345556640625,-8.289108276367188,-60.55867004394531,9.667423248291016
1700006755902400500,4.913400390625,-8.128005981445312,-60.593902587890625,10.045570373535156
1700006755912345300,4.923345458984375,-8.419853210449219,-60.74307632446289,10.516250610351562
1700006755922291500,4.93329150390625,-8.430473327636719,-60.87989807128906,11.003776550292969
1700006755932236500,4.943236572265625,-8.557762145996094,-60.87290573120117,11.130611419677734
1700006755942181600,4.953181640625,-8.506393432617188,-61.16101837158203,11.340385437011719
1700006755952126500,4.96312646484375,-8.586776733398438,-61.081016540527344,11.666568756103516
1700006755962071300,4.9730712890625,-8.876091003417969,-61.316650390625,11.651847839355469
1700006755972017000,4.983016845703125,-8.9603271484375,-61.164180755615234,11.952922821044922
1700006755981962800,4.992962646484375,-8.929145812988281,-61.43455505371094,11.924945831298828
1700006755991907800,5.002907958984375,-9.035301208496094,-61.40608215332031,11.979782104492188
1700006756001852700,5.012852783203125,-9.138565063476562,-61.60244369506836,12.011348724365234
1700006756011797800,5.0227978515625,-8.885551452636719,-61.59685134887695,12.196430206298828
1700006756021742800,5.032742919921875,-8.822074890136719,-61.61990737915039,12.53635025024414
1700006756031687700,5.042687744140625,-8.859222412109375,-61.734901428222656,12.453678131103516
1700006756041633500,5.052633544921875,-8.625343322753906,-61.63618850708008,12.190467834472656
1700006756051579000,5.062578857421875,-8.834831237792969,-61.6552619934082,11.929054260253906
1700006756061523700,5.072523681640625,-8.8599853515625,-61.6906852722168,11.75722885131836
1700006756071468800,5.08246875,-8.807281494140625,-61.7498664855957,11.59783935546875
1700006756081413600,5.09241357421875,-8.572158813476562,-61.887115478515625,11.379920959472656
1700006756091358700,5.102358642578125,-8.2615966796875,-61.796661376953125,11.38162612915039
1700006756101304800,5.112304931640625,-8.297088623046875,-61.902748107910156,10.96078872680664
1700006756111249700,5.122249755859375,-8.209480285644531,-62.148719787597656,10.9173583984375
1700006756121194800,5.13219482421875,-8.336158752441406,-61.83794021606445,10.79794692993164
1700006756131139800,5.142139892578125,-8.182907104492188,-62.009552001953125,10.44964599609375
1700006756141084700,5.152084716796875,-8.440879821777344,-62.22804260253906,10.154060363769531
1700006756151030800,5.16203076171875,-8.00634765625,-62.20013427734375,9.767570495605469
1700006756160975600,5.1719755859375,-7.942451477050781,-62.097103118896484,10.054817199707031
1700006756170920700,5.181920654296875,-8.105178833007812,-62.26339340209961,9.994094848632812
1700006756180865800,5.19186572265625,-7.682670593261719,-62.21217346191406,9.689556121826172
1700006756190810600,5.201810546875,-8.430221557617188,-61.93925857543945,9.463420867919922
1700006756200755700,5.211755615234375,-8.418609619140625,-61.939971923828125,9.344718933105469
1700006756210701800,5.221701904296875,-8.0380859375,-61.830589294433594,9.293426513671875
1700006756220646700,5.231646728515625,-8.077545166015625,-61.801368713378906,9.262443542480469
1700006756230591700,5.241591796875,-7.71795654296875,-61.71257781982422,9.249652862548828
1700006756240536600,5.25153662109375,-7.9719696044921875,-61.71022033691406,9.15182876586914
1700006756250481700,5.261481689453125,-7.965827941894531,-61.669498443603516,9.241649627685547
1700006756260426800,5.2714267578125,-7.864158630371094,-61.73246383666992,9.111518859863281
1700006756270372600,5.28137255859375,-7.5879058837890625,-61.328102111816406,9.175880432128906
1700006756280317700,5.291317626953125,-7.3861083984375,-61.3326530456543,8.975837707519531
1700006756290262800,5.3012626953125,-7.296043395996094,-61.212825775146484,8.937721252441406
1700006756300207600,5.31120751953125,-7.2000274658203125,-61.23087692260742,9.167976379394531
1700006756310152700,5.321152587890625,-7.1699676513671875,-60.96018981933594,8.98248291015625
1700006756320098600,5.3310986328125,-6.8792266845703125,-60.77276611328125,8.9952392578125
1700006756330044000,5.3410439453125,-6.8441925048828125,-60.65026092529297,9.157108306884766
1700006756339988700,5.35098876953125,-6.8016815185546875,-60.596214294433594,9.159309387207031
1700006756349933600,5.36093359375,-6.395790100097656,-60.442134857177734,8.93802261352539
1700006756359878700,5.370878662109375,-5.6334381103515625,-60.43696975708008,8.943748474121094
1700006756369823700,5.38082373046875,-5.682769775390625,-60.2114372253418,8.61566162109375
1700006756379769900,5.390769775390625,-5.377082824707031,-60.1712532043457,8.59280014038086
1700006756389714700,5.400714599609375,-5.198051452636719,-60.03746032714844,8.425514221191406
1700006756399659500,5.410659423828125,-4.4527435302734375,-60.1524658203125,8.191326141357422
1700006756409604900,5.42060498046875,-4.3170928955078125,-60.27626037597656,7.717540740966797
1700006756419549700,5.4305498046875,-4.0401611328125,-60.017765045166016,7.517059326171875
1700006756429494500,5.44049462890625,-3.787567138671875,-59.794403076171875,7.141143798828125
1700006756439440600,5.450440673828125,-3.2915496826171875,-59.93596649169922,6.729740142822266
1700006756449385700,5.4603857421875,-2.6056060791015625,-59.9780158996582,6.32470703125
1700006756459330800,5.470330810546875,-1.80877685546875,-60.21882629394531,5.7841339111328125
1700006756469275600,5.480275634765625,-1.4249649047851562,-60.02018356323242,5.430168151855469
1700006756479220700,5.490220703125,-1.0296859741210938,-60.14307403564453,5.013462066650391
1700006756489165800,5.500165771484375,-0.6038665771484375,-60.03767013549805,4.566074371337891
1700006756499111700,5.510111572265625,-0.530059814453125,-59.959007263183594,4.0432586669921875
1700006756509056800,5.520056884765625,-0.044403076171875,-59.92882537841797,3.469982147216797
1700006756519001600,5.530001708984375,0.17119598388671875,-60.18219757080078,3.4214401245117188
1700006756528946700,5.53994677734375,0.4460601806640625,-60.26356506347656,3.0205307006835938
1700006756538891800,5.549891845703125,1.1646347045898438,-60.109840393066406,2.628398895263672
1700006756548836600,5.559836669921875,1.4228439331054688,-60.23821258544922,1.9218177795410156
1700006756558782700,5.56978271484375,1.706146240234375,-60.16564178466797,2.07342529296875
1700006756568727800,5.579727783203125,2.2943496704101562,-60.37522888183594,1.902008056640625
1700006756578672600,5.589672607421875,2.941741943359375,-60.469810485839844,1.4553680419921875
1700006756588617700,5.59961767578125,3.1600570678710938,-60.63745880126953,1.2795639038085938
1700006756598562800,5.609562744140625,3.7347869873046875,-60.70263671875,1.3004608154296875
1700006756608509000,5.619509033203125,4.113655090332031,-60.65340042114258,1.3176498413085938
1700006756618453800,5.629453857421875,4.026481628417969,-60.98479080200195,1.0761489868164062
1700006756628398600,5.639398681640625,4.201652526855469,-60.878875732421875,1.1130714416503906
1700006756638344000,5.649343994140625,4.196556091308594,-60.93051528930664,1.1846961975097656
1700006756648288800,5.659288818359375,3.8548660278320312,-60.89020538330078,1.2505264282226562
1700006756658233600,5.669233642578125,3.7592086791992188,-60.89484405517578,1.0703811645507812
1700006756668179700,5.6791796875,3.7782135009765625,-61.06156539916992,0.9387359619140625
1700006756678124500,5.68912451171875,3.8424301147460938,-61.007965087890625,0.9341392517089844
1700006756688070000,5.69906982421875,3.6937179565429688,-61.25601577758789,1.043243408203125
1700006756698014700,5.7090146484375,3.5959320068359375,-61.31345748901367,1.1519432067871094
1700006756707959600,5.71895947265625,3.435211181640625,-61.51984405517578,1.2149505615234375
1700006756717905000,5.72890478515625,3.5300216674804688,-61.693824768066406,1.1920661926269531
1700006756727850800,5.738850830078125,3.86846923828125,-61.62331771850586,1.1567039489746094
1700006756737795800,5.7487958984375,3.614349365234375,-61.589866638183594,1.0595283508300781
1700006756747740700,5.75874072265625,3.5478363037109375,-61.616817474365234,0.999420166015625
1700006756757685800,5.768685791015625,3.7053146362304688,-61.76698684692383,0.7238540649414062
1700006756767630800,5.778630859375,4.125480651855469,-61.71211624145508,0.8922462463378906
1700006756777575700,5.78857568359375,4.052711486816406,-61.71478271484375,0.8159713745117188
1700006756787521800,5.798521728515625,3.78729248046875,-61.571407318115234,1.01348876953125
1700006756797467000,5.808466796875,3.6212844848632812,-61.759727478027344,0.83905029296875
1700006756807411700,5.81841162109375,3.4374160766601562,-61.666439056396484,0.7731819152832031
1700006756817356800,5.828356689453125,3.7717742919921875,-61.72663879394531,0.9732322692871094
1700006756827301600,5.838301513671875,3.8355636596679688,-61.572696685791016,0.9410629272460938
1700006756837246700,5.848246826171875,3.864959716796875,-61.70532989501953,0.9693832397460938
1700006756847192800,5.85819287109375,3.775299072265625,-61.653446197509766,1.0792999267578125
1700006756857137700,5.8681376953125,3.4804763793945312,-61.5402946472168,1.363800048828125
1700006756867082800,5.878082763671875,3.5906219482421875,-61.41127395629883,1.2086906433105469
1700006756877027800,5.88802783203125,4.145233154296875,-61.34858703613281,1.3642654418945312
1700006756886972700,5.89797265625,3.955169677734375,-61.43391036987305,1.6013412475585938
1700006756896918800,5.907918701171875,3.8642120361328125,-61.1347770690918,1.5621566772460938
1700006756906863600,5.917863525390625,3.930084228515625,-61.1044921875,1.5675849914550781
1700006756916808700,5.92780859375,4.205787658691406,-61.109596252441406,1.631927490234375
1700006756926753800,5.93775390625,4.272575378417969,-60.696983337402344,1.9783782958984375
1700006756936698600,5.94769873046875,4.163993835449219,-60.71033477783203,1.8176612854003906
1700006756946643700,5.957643798828125,4.375434875488281,-60.58481216430664,2.1262855529785156
1700006756956589800,5.96758984375,4.272773742675781,-60.39558410644531,2.1438674926757812
1700006756966534700,5.97753466796875,4.3746337890625,-60.563697814941406,1.8518791198730469
1700006756976478500,5.987478515625,4.498313903808594,-60.4360237121582,2.2155685424804688
1700006756986423800,5.997423828125,4.567848205566406,-60.44325256347656,2.1516265869140625
1700006756996368600,6.00736865234375,4.292961120605469,-60.39262008666992,2.3221969604492188
1700006757006313500,6.0173134765625,4.404754638671875,-60.25615692138672,2.233428955078125
1700006757016259600,6.027259521484375,4.258857727050781,-60.205387115478516,2.4235610961914062
1700006757026204700,6.03720458984375,4.385932922363281,-60.14763259887695,2.4281044006347656
1700006757036149800,6.047149658203125,4.5560455322265625,-60.20570755004883,2.2819557189941406
1700006757046094600,6.057094482421875,4.528083801269531,-60.0267333984375,2.268207550048828
1700006757056039700,6.067039794921875,5.01806640625,-60.145233154296875,2.4826812744140625
1700006757065984800,6.07698486328125,5.326408386230469,-60.05619812011719,2.482646942138672
1700006757075930600,6.0869306640625,5.124137878417969,-59.856266021728516,2.473522186279297
1700006757085875700,6.096875732421875,5.7100982666015625,-59.981834411621094,2.3808326721191406
1700006757095820500,6.106820556640625,5.7910003662109375,-59.80701446533203,2.6361427307128906
1700006757105765600,6.116765625,5.951972961425781,-59.908172607421875,2.586437225341797
1700006757115710700,6.126710693359375,6.030975341796875,-59.99118423461914,2.6447715759277344
1700006757125656600,6.136656494140625,6.0657501220703125,-60.084354400634766,2.7345352172851562
1700006757135601700,6.1466015625,6.31036376953125,-60.141075134277344,2.8491897583007812
1700006757145546800,6.156546630859375,6.897071838378906,-60.1568717956543,2.8791236877441406
1700006757155491600,6.16649169921875,7.0310516357421875,-60.21864318847656,2.8162765502929688
1700006757165436700,6.176436767578125,7.562263488769531,-60.166568756103516,2.7642555236816406
1700006757175381800,6.1863818359375,7.83148193359375,-60.37859344482422,3.0226211547851562
1700006757185327600,6.19632763671875,8.007728576660156,-60.50311279296875,3.3002166748046875
1700006757195272700,6.206272705078125,7.89398193359375,-60.567359924316406,3.5819244384765625
1700006757205217500,6.216217529296875,8.104293823242188,-60.80240249633789,3.4950942993164062
1700006757215163000,6.226162841796875,8.274078369140625,-60.82661819458008,3.3933067321777344
1700006757225107700,6.236107666015625,7.9829559326171875,-60.720821380615234,3.5641746520996094
1700006757235052500,6.246052490234375,8.291603088378906,-60.84252166748047,3.5390472412109375
1700006757244998700,6.25599853515625,8.136161804199219,-60.98979949951172,3.565887451171875
1700006757254943500,6.265943603515625,7.90386962890625,-60.935951232910156,3.649829864501953
1700006757264888600,6.275888671875,7.655342102050781,-61.09992980957031,3.632335662841797
1700006757274833700,6.285833740234375,7.77099609375,-61.28132629394531,3.7292823791503906
1700006757284778500,6.295778564453125,7.467132568359375,-61.46146774291992,3.442535400390625
1700006757294723800,6.305723876953125,7.288322448730469,-61.58136749267578,3.4477081298828125
1700006757304669700,6.315669677734375,7.053314208984375,-61.636993408203125,3.416942596435547
1700006757314614500,6.325614501953125,6.768104553222656,-61.68178939819336,3.3556480407714844
1700006757324559600,6.3355595703125,6.836296081542969,-61.73297119140625,3.270122528076172
1700006757334504700,6.345504638671875,6.970420837402344,-61.79719543457031,3.357341766357422
1700006757344449800,6.35544970703125,6.719207763671875,-61.61595153808594,2.9071006774902344
1700006757354394600,6.36539453125,6.271919250488281,-61.74700164794922,3.0599899291992188
1700006757364340500,6.375340576171875,6.095344543457031,-61.7142219543457,2.8374710083007812
1700006757374285800,6.385285888671875,5.9247283935546875,-61.85249710083008,2.8600921630859375
1700006757384230700,6.395230712890625,5.801658630371094,-61.778106689453125,2.641834259033203
1700006757394175500,6.405175537109375,5.440162658691406,-62.03976821899414,2.2170867919921875
1700006757404120600,6.41512060546875,5.313774108886719,-62.04079818725586,2.058582305908203
1700006757414065700,6.425065673828125,5.0619964599609375,-62.067134857177734,2.109050750732422
1700006757424011800,6.43501171875,5.1467742919921875,-62.0640869140625,1.9750785827636719
1700006757433956600,6.44495654296875,5.0321807861328125,-62.320377349853516,1.8350028991699219
1700006757443901400,6.4549013671875,5.003425598144531,-62.241153717041016,1.510406494140625
1700006757453846800,6.4648466796875,4.5791778564453125,-62.23225021362305,1.5204124450683594
1700006757463791600,6.47479150390625,5.004295349121094,-62.1468505859375,1.517608642578125
1700006757473737700,6.48473779296875,4.439018249511719,-62.11720657348633,1.4508438110351562
1700006757483682600,6.4946826171875,4.487907409667969,-62.04655075073242,1.4134063720703125
1700006757493627600,6.504627685546875,4.1027069091796875,-61.92234420776367,1.0015106201171875
1700006757503572700,6.51457275390625,4.835044860839844,-61.90583801269531,1.0592536926269531
1700006757513517600,6.524517578125,4.18414306640625,-61.9728889465332,1.02392578125
1700006757523462700,6.534462646484375,3.8608856201171875,-61.81790542602539,0.9273910522460938
1700006757533408800,6.54440869140625,3.7880401611328125,-61.776973724365234,0.5760726928710938
1700006757543353600,6.554353515625,3.4404220581054688,-61.938636779785156,0.5779533386230469
1700006757553298700,6.564298583984375,3.398712158203125,-61.706485748291016,0.4085578918457031
1700006757563243500,6.574243408203125,3.6459197998046875,-61.557640075683594,0.5093307495117188
1700006757573188600,6.584188720703125,3.2084426879882812,-61.53681182861328,0.24558258056640625
1700006757583133700,6.5941337890625,3.1707839965820312,-61.40298080444336,0.2972297668457031
1700006757593079600,6.60407958984375,3.072998046875,-61.41801071166992,0.23376846313476562
1700006757603024600,6.614024658203125,2.9602813720703125,-61.19225311279297,0.15383529663085938
1700006757612969700,6.6239697265625,2.599700927734375,-60.941471099853516,0.4313087463378906
1700006757622914600,6.63391455078125,2.4983978271484375,-60.67042922973633,0.21446990966796875
1700006757632859600,6.643859619140625,2.4250946044921875,-60.71478271484375,-0.054531097412109375
1700006757642804700,6.6538046875,2.2896728515625,-60.534149169921875,0.08666229248046875
1700006757652750800,6.663750732421875,2.38104248046875,-60.504920959472656,-0.016132354736328125
1700006757662695700,6.67369580078125,2.4754791259765625,-60.243919372558594,-0.07480621337890625
1700006757672640500,6.683640625,1.9684600830078125,-60.27254104614258,-0.33594512939453125
1700006757682585600,6.693585693359375,2.0480575561523438,-60.21843338012695,-0.467132568359375
1700006757692530700,6.70353076171875,1.7673110961914062,-60.07402801513672,-0.652008056640625
1700006757702475500,6.7134755859375,1.8570404052734375,-60.281211853027344,-1.0640144348144531
1700006757712421600,6.723421630859375,1.8607864379882812,-60.106842041015625,-1.1982040405273438
1700006757722366500,6.733366455078125,2.0601119995117188,-60.283851623535156,-1.7335319519042969
1700006757732311800,6.743311767578125,2.0419769287109375,-60.124759674072266,-2.187053680419922
1700006757742256600,6.753256591796875,2.0539932250976562,-59.92315673828125,-2.3099288940429688
1700006757752201500,6.763201416015625,2.2206039428710938,-60.040225982666016,-2.773059844970703
1700006757762146800,6.773146728515625,2.1705245971679688,-59.92711639404297,-3.055675506591797
1700006757772092700,6.7830927734375,2.5187149047851562,-59.85533142089844,-3.323047637939453
1700006757782037800,6.793037841796875,2.4233016967773438,-59.84917068481445,-3.507038116455078
1700006757791982600,6.802982666015625,2.43927001953125,-59.885372161865234,-3.684783935546875
1700006757801927700,6.812927734375,2.4479522705078125,-59.7894401550293,-4.0519561767578125
1700006757811872800,6.822872802734375,2.4631118774414062,-59.7459716796875,-4.2894134521484375
1700006757821818600,6.832818603515625,2.912261962890625,-59.62580108642578,-4.650516510009766
1700006757831763700,6.842763671875,2.5942001342773438,-59.58556365966797,-4.884763717651367
1700006757841708500,6.85270849609375,2.9318008422851562,-59.37098693847656,-5.213459014892578
1700006757851653600,6.862653564453125,2.8357696533203125,-59.4430046081543,-5.786231994628906
1700006757861598700,6.8725986328125,3.14959716796875,-59.229366302490234,-5.864126205444336
1700006757871543600,6.88254345703125,3.7397842407226562,-59.2678108215332,-5.992683410644531
1700006757881489700,6.89248974609375,3.7299728393554688,-59.28477478027344,-5.997407913208008
1700006757891434800,6.902434814453125,4.100410461425781,-59.36820983886719,-6.230258941650391
1700006757901379600,6.912379638671875,4.144874572753906,-59.30097198486328,-6.415733337402344
1700006757911324700,6.92232470703125,4.377197265625,-59.376346588134766,-6.578563690185547
1700006757921269800,6.932269775390625,4.666664123535156,-59.24330520629883,-6.684093475341797
1700006757931214600,6.942214599609375,4.660118103027344,-59.1343879699707,-7.081037521362305
1700006757941160700,6.95216064453125,4.904792785644531,-59.29623031616211,-7.016233444213867
1700006757951105500,6.96210546875,4.6251068115234375,-59.2277946472168,-7.212015151977539
1700006757961050600,6.972050537109375,4.7236480712890625,-59.12388229370117,-6.9359893798828125
1700006757970995700,6.98199560546875,4.692008972167969,-59.13251495361328,-7.334938049316406
1700006757980941800,6.99194189453125,4.291603088378906,-59.084190368652344,-7.44268798828125
1700006757990886700,7.00188671875,4.348320007324219,-59.1507453918457,-7.304418563842773
1700006758000832800,7.011832763671875,3.8478546142578125,-59.15398025512695,-7.396886825561523
1700006758010777600,7.021777587890625,4.141578674316406,-59.3127555847168,-7.398687362670898
1700006758020722700,7.03172265625,4.209129333496094,-59.50481033325195,-7.534065246582031
1700006758030667800,7.041667724609375,3.7447052001953125,-59.52483367919922,-7.645524978637695
1700006758040612600,7.051612548828125,3.8234939575195312,-59.468299865722656,-7.700849533081055
1700006758050557700,7.0615576171875,3.7480087280273438,-59.45436096191406,-7.986066818237305
1700006758060503800,7.07150390625,4.068534851074219,-59.40654373168945,-8.163248062133789
1700006758070448600,7.08144873046875,3.893035888671875,-59.333702087402344,-7.985761642456055
1700006758080393700,7.091393798828125,3.9180908203125,-59.45415115356445,-7.884029388427734
1700006758090338800,7.1013388671875,3.752960205078125,-59.400753021240234,-8.085554122924805
1700006758100283600,7.11128369140625,3.4856033325195312,-59.32197952270508,-7.894931793212891
1700006758110228700,7.121228759765625,3.6399688720703125,-59.32122802734375,-8.15306282043457
1700006758120174600,7.131174560546875,3.338409423828125,-59.48808288574219,-8.151229858398438
1700006758130119700,7.14111962890625,3.6984329223632812,-59.582130432128906,-8.106389999389648
1700006758140064800,7.151064697265625,3.1743850708007812,-59.53675079345703,-8.173358917236328
1700006758150009600,7.161009521484375,2.6995620727539062,-59.375709533691406,-7.944482803344727
1700006758159954700,7.17095458984375,2.9989013671875,-59.3996467590332,-7.999658584594727
1700006758169900500,7.180900634765625,2.8709945678710938,-59.31220245361328,-7.947530746459961
1700006758179846000,7.190845947265625,2.6744003295898438,-59.41255187988281,-7.564727783203125
1700006758189790700,7.200790771484375,2.567535400390625,-59.39585494995117,-7.56428337097168
1700006758199735600,7.210735595703125,2.2568588256835938,-59.42586135864258,-7.714874267578125
1700006758209681000,7.220680908203125,2.551177978515625,-59.68095016479492,-7.6420135498046875
1700006758219625700,7.230625732421875,1.7747039794921875,-59.6325569152832,-7.374301910400391
1700006758229571800,7.24057177734375,1.3722457885742188,-59.544532775878906,-7.270666122436523
1700006758239516700,7.2505166015625,1.1483154296875,-59.53047180175781,-7.031505584716797
1700006758249461800,7.260461669921875,1.285400390625,-59.458126068115234,-6.957456588745117
1700006758259406800,7.27040673828125,0.5967788696289062,-59.33254623413086,-6.919157028198242
1700006758269351700,7.2803515625,0.45418548583984375,-59.29581069946289,-6.7846221923828125
1700006758279296500,7.290296630859375,0.38866424560546875,-59.361244201660156,-6.794820785522461
1700006758289242600,7.30024267578125,0.628204345703125,-59.23295974731445,-6.662353515625
1700006758299187700,7.310187744140625,0.21454620361328125,-59.405216217041016,-6.517250061035156
1700006758309132800,7.3201328125,0.292877197265625,-59.266815185546875,-6.287073135375977
1700006758319077600,7.33007763671875,0.136566162109375,-59.204139709472656,-6.223155975341797
1700006758329022700,7.340022705078125,0.07122802734375,-59.19269943237305,-6.3460540771484375
1700006758338967800,7.3499677734375,0.10080718994140625,-59.425086975097656,-6.26524543762207
1700006758348913700,7.35991357421875,0.4551544189453125,-59.49842071533203,-5.980524063110352
1700006758358858800,7.369858642578125,0.6210861206054688,-59.33898162841797,-5.892852783203125
1700006758368803800,7.379803955078125,0.7347640991210938,-59.3999137878418,-5.882671356201172
1700006758378748700,7.389748779296875,1.1828689575195312,-59.503841400146484,-5.701972961425781
1700006758388693800,7.39969384765625,1.3387527465820312,-59.35689926147461,-5.529016494750977
1700006758398638800,7.409638916015625,1.3359222412109375,-59.510711669921875,-5.4001922607421875
1700006758408585000,7.4195849609375,1.529541015625,-59.459861755371094,-5.369903564453125
1700006758418529800,7.42952978515625,1.7307586669921875,-59.43417739868164,-5.053091049194336
1700006758428474600,7.439474609375,1.8606185913085938,-59.591304779052734,-5.064584732055664
1700006758438419700,7.449419677734375,1.7305984497070312,-59.70507049560547,-5.097917556762695
1700006758448364800,7.45936474609375,1.768890380859375,-59.78774642944336,-4.853967666625977
1700006758458309600,7.4693095703125,1.6943283081054688,-59.90677261352539,-4.767585754394531
1700006758468255700,7.479255859375,1.6443252563476562,-59.971900939941406,-4.772157669067383
1700006758478200600,7.48920068359375,2.2570724487304688,-60.091835021972656,-4.690834045410156
1700006758488146000,7.49914599609375,2.6977920532226562,-60.09986877441406,-4.553398132324219
1700006758498090800,7.5090908203125,2.408477783203125,-60.0108757019043,-4.573490142822266
1700006758508035600,7.51903564453125,2.9714202880859375,-59.97958755493164,-4.6014251708984375
1700006758517981000,7.52898095703125,2.9867172241210938,-60.21122741699219,-4.249137878417969
1700006758527926800,7.5389267578125,3.230712890625,-60.33402633666992,-4.140857696533203
1700006758537872000,7.548871826171875,3.0322189331054688,-60.2977294921875,-3.893993377685547
1700006758547816700,7.558816650390625,3.2256393432617188,-60.31846237182617,-3.7279319763183594
1700006758557761800,7.56876171875,3.4958953857421875,-60.533329010009766,-3.747161865234375
1700006758567707000,7.578706787109375,3.6508102416992188,-60.703609466552734,-3.661975860595703
1700006758577652700,7.58865283203125,3.9063644409179688,-60.5601806640625,-3.813018798828125
1700006758587597600,7.59859765625,3.7421875,-60.3359489440918,-3.4371299743652344
1700006758597542700,7.608542724609375,4.014678955078125,-60.459407806396484,-3.4419708251953125
1700006758607487700,7.61848779296875,3.3959884643554688,-60.46930694580078,-3.0802955627441406
1700006758617432800,7.628432861328125,3.41058349609375,-60.57503890991211,-3.0352020263671875
1700006758627377700,7.638377685546875,3.2964706420898438,-60.837162017822266,-3.182353973388672
1700006758637323500,7.648323486328125,3.5638656616210938,-60.88531494140625,-3.0876083374023438
1700006758647268900,7.658268798828125,3.65765380859375,-61.05319595336914,-3.1010093688964844
1700006758657213700,7.668213623046875,3.6817626953125,-61.069496154785156,-2.975360870361328
1700006758667158800,7.67815869140625,3.7566757202148438,-61.17426681518555,-3.00030517578125
1700006758677103900,7.688103759765625,3.4963150024414062,-61.089271545410156,-3.1046981811523438
1700006758687048700,7.698048583984375,3.2548446655273438,-61.08987045288086,-3.2018051147460938
1700006758696994800,7.707994873046875,3.4444122314453125,-61.14645767211914,-3.3552703857421875
1700006758706939600,7.717939697265625,3.5327682495117188,-61.01454162597656,-3.5489463806152344
1700006758716884700,7.727884765625,3.5380401611328125,-61.1106071472168,-3.6596527099609375
1700006758726829800,7.737829833984375,3.2326126098632812,-61.24150848388672,-3.7545166015625
1700006758736774700,7.747774658203125,3.0517807006835938,-61.3076171875,-3.7527618408203125
1700006758746719700,7.7577197265625,3.2862319946289062,-61.133140563964844,-4.0126953125
1700006758756665600,7.76766552734375,2.9585800170898438,-61.22916793823242,-3.8507919311523438
1700006758766610700,7.777610595703125,3.3571090698242188,-61.25844192504883,-3.9590415954589844
1700006758776555800,7.7875556640625,3.5629119873046875,-61.1903076171875,-4.035285949707031
1700006758786500600,7.79750048828125,3.0333938598632812,-60.96692657470703,-3.9823951721191406
1700006758796445700,7.80744580078125,2.7867584228515625,-60.99583435058594,-3.8326377868652344
1700006758806390800,7.817390869140625,2.5334243774414062,-60.856727600097656,-3.9463424682617188
1700006758816336600,7.827336669921875,2.00445556640625,-60.83214569091797,-3.7842254638671875
1700006758826281700,7.83728173828125,1.8480682373046875,-60.965091705322266,-3.7258262634277344
1700006758836226800,7.847226806640625,1.7069931030273438,-60.94702911376953,-3.6753578186035156
1700006758846171600,7.857171630859375,1.4490737915039062,-60.8652229309082,-3.6912078857421875
1700006758856116700,7.86711669921875,1.3484954833984375,-60.96683120727539,-3.696636199951172
1700006758866061600,7.8770615234375,0.7719192504882812,-60.76803207397461,-3.5614051818847656
1700006758876007700,7.887007568359375,0.43973541259765625,-60.836395263671875,-3.4864120483398438
1700006758885952800,7.896952880859375,0.01779937744140625,-60.629302978515625,-3.5277252197265625
1700006758895897600,7.906897705078125,-0.22021484375,-60.61833953857422,-3.5611000061035156
1700006758905842700,7.9168427734375,-0.3011322021484375,-60.643348693847656,-3.4038658142089844
1700006758915787800,7.926787841796875,-0.2872161865234375,-60.623207092285156,-3.1676177978515625
1700006758925732600,7.936732666015625,-0.43312835693359375,-60.44219970703125,-3.248638153076172
1700006758935678700,7.9466787109375,-0.32645416259765625,-60.48908996582031,-3.5019378662109375
1700006758945623600,7.95662353515625,-0.8127365112304688,-60.295806884765625,-3.4508094787597656
1700006758955569000,7.96656884765625,-0.9205551147460938,-60.4942741394043,-3.310832977294922
1700006758965513700,7.976513671875,-0.8218307495117188,-60.20625305175781,-3.3092994689941406
1700006758975458600,7.98645849609375,-1.0371017456054688,-60.01569747924805,-3.4398117065429688
1700006758985403600,7.996403564453125,-1.06683349609375,-60.26786422729492,-3.301959991455078
1700006758995349800,8.006349853515625,-0.89569091796875,-60.19111251831055,-3.40875244140625
1700006759005294600,8.016294677734376,-1.0101470947265625,-60.01112747192383,-3.6898422241210938
1700006759015239700,8.02623974609375,-0.846405029296875,-60.09018325805664,-3.742279052734375
1700006759025184500,8.0361845703125,-0.40899658203125,-59.957176208496094,-3.7965354919433594
1700006759035129600,8.046129638671875,0.31034088134765625,-60.07169723510742,-3.924968719482422
1700006759045074700,8.05607470703125,0.5437774658203125,-60.16158676147461,-3.9639549255371094
1700006759055020500,8.0660205078125,0.422088623046875,-60.00761413574219,-4.528938293457031
1700006759064965400,8.07596533203125,1.2563247680664062,-59.799747467041016,-4.61175537109375
1700006759074910700,8.08591064453125,1.6345672607421875,-59.71820831298828,-4.918956756591797
1700006759084855600,8.09585546875,1.714324951171875,-59.58623504638672,-5.463571548461914
1700006759094800600,8.105800537109374,2.3738327026367188,-59.74415588378906,-5.90196418762207
1700006759104745700,8.115745849609375,2.5537490844726562,-59.504817962646484,-5.916614532470703
1700006759114691600,8.125691650390625,2.8128585815429688,-59.53474807739258,-6.271854400634766
1700006759124636700,8.13563671875,2.9757156372070312,-59.497135162353516,-6.473276138305664
1700006759134581500,8.14558154296875,3.4208602905273438,-59.42716598510742,-6.71027946472168
1700006759144526600,8.155526611328124,4.259071350097656,-59.444889068603516,-7.319164276123047
1700006759154471700,8.1654716796875,4.778564453125,-59.522579193115234,-7.572038650512695
1700006759164416500,8.17541650390625,4.936187744140625,-59.42705154418945,-7.833740234375
1700006759174362600,8.185362548828126,5.7581787109375,-59.475040435791016,-7.81065559387207
1700006759184307500,8.195307373046875,6.004829406738281,-59.306610107421875,-8.033180236816406
1700006759194252500,8.20525244140625,5.9425201416015625,-59.400394439697266,-8.182769775390625
1700006759204197600,8.21519775390625,6.262702941894531,-59.148948669433594,-8.369087219238281
1700006759214142500,8.225142578125,6.393440246582031,-59.16902160644531,-8.274890899658203
1700006759224087800,8.235087890625,7.046302795410156,-59.18595886230469,-8.230899810791016
1700006759234033700,8.24503369140625,6.886604309082031,-59.132835388183594,-8.202529907226562
1700006759243978500,8.254978515625,7.025970458984375,-59.1402702331543,-8.59976577758789
1700006759253923600,8.264923583984375,7.4548797607421875,-59.07884216308594,-8.296934127807617
1700006759263868700,8.27486865234375,8.020904541015625,-59.18916320800781,-8.434053421020508
1700006759273813500,8.2848134765625,8.147666931152344,-59.16293716430664,-8.343549728393555
1700006759283758600,8.294758544921875,8.28802490234375,-59.12568283081055,-8.114885330200195
1700006759293704400,8.304704345703126,8.007278442382812,-59.13148880004883,-7.811246871948242
1700006759303649500,8.3146494140625,8.225723266601562,-59.028282165527344,-7.937177658081055
1700006759313594600,8.3245947265625,8.2706298828125,-59.050148010253906,-8.125078201293945
1700006759323539500,8.33453955078125,8.230430603027344,-58.93547439575195,-7.770572662353516
1700006759333484500,8.344484619140625,8.393592834472656,-59.068359375,-7.661914825439453
1700006759343430400,8.354430419921876,8.279136657714844,-59.17965316772461,-7.826801300048828
1700006759353375700,8.364375732421875,8.366050720214844,-59.194942474365234,-7.492794036865234
1700006759363320600,8.374320556640624,8.390205383300781,-59.16202926635742,-7.299280166625977
1700006759373265400,8.384265380859375,8.850639343261719,-59.13441848754883,-7.620567321777344
1700006759383210800,8.394210693359375,8.457534790039062,-58.92521667480469,-7.348810195922852
1700006759393155600,8.404155517578126,8.328872680664062,-59.12690734863281,-7.070230484008789
1700006759403101700,8.414101806640625,8.934112548828125,-59.11408615112305,-7.092363357543945
1700006759413046500,8.424046630859374,8.801589965820312,-59.158935546875,-6.870813369750977
1700006759422991600,8.43399169921875,8.920402526855469,-59.08256149291992,-6.568939208984375
1700006759432936700,8.443936767578125,9.458824157714844,-58.960235595703125,-6.626108169555664
1700006759442881500,8.453881591796875,9.402999877929688,-59.19481658935547,-6.584831237792969
1700006759452826600,8.46382666015625,9.392097473144531,-59.21240234375,-6.5948486328125
1700006759462772500,8.4737724609375,9.290908813476562,-59.21675109863281,-6.357875823974609
1700006759472717600,8.483717529296875,9.378349304199219,-59.14112091064453,-6.171480178833008
1700006759482662700,8.49366259765625,9.054977416992188,-59.1034049987793,-6.140785217285156
1700006759492607500,8.503607421875,9.278419494628906,-59.201080322265625,-5.802833557128906
1700006759502552600,8.513552490234375,9.254524230957031,-59.095726013183594,-5.895845413208008
1700006759512497700,8.52349755859375,9.571327209472656,-58.94886016845703,-5.82037353515625
1700006759522443500,8.533443603515625,9.278877258300781,-58.964176177978516,-5.909635543823242
1700006759532388600,8.543388671875,9.559524536132812,-59.11247253417969,-5.7035675048828125
1700006759542333700,8.553333740234375,9.623931884765625,-59.15308380126953,-5.600566864013672
1700006759552278500,8.563278564453125,9.125007629394531,-59.05282211303711,-5.451711654663086
1700006759562223600,8.5732236328125,9.512779235839844,-59.25799560546875,-5.359960556030273
1700006759572168700,8.583168701171875,8.995368957519531,-59.15719223022461,-5.058929443359375
1700006759582114800,8.59311474609375,8.752815246582031,-59.0006217956543,-4.881940841674805
1700006759592059600,8.6030595703125,8.831451416015625,-59.05139923095703,-4.961719512939453
1700006759602004500,8.61300439453125,8.651138305664062,-59.20954895019531,-4.791681289672852
1700006759611949600,8.622949462890626,8.299919128417969,-59.31349563598633,-4.870403289794922
1700006759621894700,8.632894775390625,8.024879455566406,-59.2773551940918,-4.924245834350586
1700006759631839500,8.642839599609376,7.962890625,-59.15544128417969,-4.3206787109375
1700006759641785600,8.65278564453125,7.930824279785156,-59.27448654174805,-4.314231872558594
1700006759651730400,8.66273046875,7.6421051025390625,-59.30377197265625,-4.192394256591797
1700006759661675800,8.67267578125,7.0361175537109375,-59.163177490234375,-4.277805328369141
1700006759671620600,8.68262060546875,7.310455322265625,-59.292232513427734,-3.931407928466797
1700006759681565400,8.6925654296875,7.1290130615234375,-59.39794158935547,-3.9967117309570312
1700006759691510800,8.7025107421875,7.2270965576171875,-59.26396942138672,-4.041015625
1700006759701456600,8.71245654296875,6.930839538574219,-59.31564712524414,-4.054271697998047
1700006759711401700,8.722401611328126,6.869926452636719,-59.52357864379883,-3.858978271484375
1700006759721346600,8.7323466796875,7.015708923339844,-59.493309020996094,-3.9145431518554688
1700006759731291600,8.742291748046876,7.3149566650390625,-59.4766960144043,-3.8088836669921875
1700006759741236700,8.75223681640625,7.0660552978515625,-59.42044448852539,-3.570087432861328
1700006759751181600,8.762181640625,6.923500061035156,-59.64682388305664,-3.67047119140625
1700006759761127700,8.772127685546875,7.3049468994140625,-59.5224723815918,-3.6414146423339844
1700006759771072500,8.782072509765625,7.117347717285156,-59.27869415283203,-3.70489501953125
1700006759781017600,8.792017578125,7.174217224121094,-59.21435546875,-3.721424102783203
1700006759790962700,8.801962646484375,7.074348449707031,-59.0203742980957,-3.730243682861328
1700006759800907500,8.811907470703124,7.111045837402344,-59.14036560058594,-3.8529624938964844
1700006759810852600,8.8218525390625,7.242378234863281,-59.211936950683594,-3.7969017028808594
1700006759820798700,8.831798828125,7.315086364746094,-59.064430236816406,-3.751758575439453
1700006759830743600,8.84174365234375,7.309028625488281,-58.893978118896484,-3.6761322021484375
1700006759840688600,8.851688720703125,7.4756927490234375,-58.74048614501953,-3.5473365783691406
1700006759850633700,8.8616337890625,7.455436706542969,-58.59273910522461,-3.5666046142578125
1700006759860578600,8.87157861328125,7.440177917480469,-58.66148376464844,-3.437328338623047
1700006759870523600,8.881523681640624,7.094818115234375,-58.674827575683594,-3.1946258544921875
1700006759880469500,8.891469482421876,7.508270263671875,-58.92918014526367,-3.1521530151367188
1700006759890414600,8.90141455078125,7.3626251220703125,-59.04414367675781,-3.004741668701172
1700006759900359700,8.911359619140624,7.501091003417969,-58.89393615722656,-3.015838623046875
1700006759910304500,8.921304443359375,7.3828582763671875,-59.00349426269531,-2.762054443359375
1700006759920249600,8.93124951171875,7.250602722167969,-58.792789459228516,-2.5486717224121094
1700006759930194700,8.941194580078125,7.426239013671875,-58.967960357666016,-2.495342254638672
1700006759940140500,8.951140625,7.306541442871094,-59.146907806396484,-2.5435638427734375
1700006759950085600,8.961085693359376,7.27947998046875,-59.030113220214844,-2.4311866760253906
1700006759960030500,8.971030517578125,6.5323944091796875,-58.789329528808594,-2.406036376953125
1700006759969975800,8.980975830078124,6.968353271484375,-58.80491638183594,-2.133544921875
1700006759979920600,8.990920654296875,7.12066650390625,-58.896888732910156,-2.1550521850585938
1700006759989865500,9.000865478515625,7.2205657958984375,-58.92815399169922,-1.9956092834472656
1700006759999811300,9.010811279296876,7.3173065185546875,-58.86666488647461,-1.86322021484375
1700006760009756700,9.020756591796875,7.270164489746094,-58.80518341064453,-1.89990234375
1700006760019701500,9.030701416015624,7.308013916015625,-58.815303802490234,-2.037281036376953
1700006760029646300,9.040646240234375,7.105400085449219,-58.8256721496582,-1.8003044128417969
1700006760039591400,9.05059130859375,7.558677673339844,-58.60638427734375,-1.8591461181640625
1700006760049536500,9.06053662109375,7.2983856201171875,-58.60637664794922,-2.2536964416503906
1700006760059482600,9.070482666015625,7.075965881347656,-58.67690658569336,-2.212596893310547
1700006760069427500,9.080427490234374,7.000450134277344,-58.46195602416992,-2.4756240844726562
1700006760079372300,9.090372314453125,6.9780731201171875,-58.34450912475586,-2.4983253479003906
1700006760089317600,9.100317626953125,6.67279052734375,-58.516937255859375,-2.8635215759277344
1700006760099262500,9.110262451171875,6.530006408691406,-58.49678039550781,-2.7009315490722656
1700006760109207600,9.12020751953125,6.448631286621094,-58.35951614379883,-2.7229156494140625
1700006760119153400,9.1301533203125,6.4598541259765625,-58.47153854370117,-3.1720123291015625
1700006760129098500,9.140098388671875,6.6550140380859375,-58.22345733642578,-3.2694091796875
1700006760139043600,9.150043701171874,6.646209716796875,-58.26411056518555,-3.2296104431152344
1700006760148988400,9.159988525390625,6.440643310546875,-58.2476806640625,-3.376850128173828
1700006760158933500,9.16993359375,6.611869812011719,-58.3395881652832,-3.4057884216308594
1700006760168878600,9.179878662109376,6.780609130859375,-58.131683349609375,-3.4579734802246094
1700006760178824400,9.189824462890625,6.550025939941406,-58.1556396484375,-3.4133224487304688
1700006760188769500,9.19976953125,6.451805114746094,-58.172542572021484,-3.3839759826660156
1700006760198714400,9.20971435546875,6.616600036621094,-58.05025863647461,-3.740436553955078
1700006760208659500,9.219659423828125,6.511085510253906,-57.84035110473633,-3.6365509033203125
1700006760218604500,9.2296044921875,6.6408233642578125,-57.957298278808594,-3.767852783203125
1700006760228550400,9.23955029296875,6.7093353271484375,-57.894039154052734,-3.6666221618652344
1700006760238495500,9.24949560546875,6.55828857421875,-57.874855041503906,-3.5076141357421875
1700006760248440600,9.259440673828125,6.437324523925781,-57.990631103515625,-3.4367713928222656
1700006760258385400,9.269385498046875,6.438468933105469,-57.986610412597656,-3.6380615234375
1700006760268330500,9.27933056640625,6.467506408691406,-57.73542022705078,-3.811126708984375
1700006760278275600,9.289275634765625,6.33355712890625,-57.67301559448242,-3.747020721435547
1700006760288220400,9.299220458984376,6.549041748046875,-57.622833251953125,-3.892101287841797
1700006760298166500,9.30916650390625,6.386878967285156,-57.95923614501953,-3.7900314331054688
1700006760308111400,9.319111328125,6.083488464355469,-57.94135665893555,-3.5591354370117188
1700006760318056700,9.329056640625,6.334716796875,-57.992713928222656,-3.5236778259277344
1700006760328001500,9.33900146484375,6.038017272949219,-58.065860748291016,-3.7582130432128906
1700006760337946400,9.3489462890625,5.985107421875,-58.29301452636719,-3.5447616577148438
1700006760347891500,9.358891357421875,5.376701354980469,-58.06239700317383,-3.5562744140625
1700006760357837300,9.36883740234375,5.3346405029296875,-58.05393981933594,-3.6657867431640625
1700006760367782700,9.37878271484375,5.372764587402344,-58.17453384399414,-3.778301239013672
1700006760377727500,9.3887275390625,5.1677093505859375,-58.07573699951172,-3.7545852661132812
1700006760387672300,9.39867236328125,4.9587860107421875,-58.0734977722168,-3.6664581298828125
1700006760397617700,9.40861767578125,4.853645324707031,-57.970272064208984,-3.7452735900878906
1700006760407562500,9.4185625,4.5204010009765625,-58.224185943603516,-3.615764617919922
1700006760417508600,9.428508544921876,4.336799621582031,-58.11140441894531,-3.8271484375
1700006760427453400,9.438453369140625,4.3656158447265625,-58.10073471069336,-3.7296066284179688
1700006760437398500,9.4483984375,4.393798828125,-58.05962371826172,-3.891704559326172
1700006760447343600,9.458343505859375,4.227508544921875,-58.050193786621094,-3.7950706481933594
1700006760457288400,9.468288330078124,4.066864013671875,-57.94807434082031,-3.687793731689453
1700006760467233500,9.478233642578125,3.7176971435546875,-58.06510925292969,-3.4485702514648438
1700006760477179600,9.4881796875,3.2214431762695312,-57.97711181640625,-3.5126991271972656
1700006760487124500,9.49812451171875,3.3212051391601562,-57.9436149597168,-3.3483047485351562
1700006760497069600,9.508069580078125,3.2396316528320312,-57.88118362426758,-3.1750221252441406
1700006760507014400,9.518014404296874,3.411529541015625,-57.65779113769531,-3.3303794860839844
1700006760516959500,9.52795947265625,3.580047607421875,-57.708229064941406,-3.104869842529297
1700006760526904600,9.537904541015624,3.304412841796875,-57.796966552734375,-2.976032257080078
1700006760536850400,9.547850341796876,3.0090789794921875,-57.666603088378906,-2.8771324157714844
1700006760546795500,9.55779541015625,3.1086578369140625,-57.80668640136719,-2.8001480102539062
1700006760556740600,9.56774072265625,2.9147872924804688,-58.01316833496094,-2.7324676513671875
1700006760566685400,9.577685546875,2.820404052734375,-57.78090286254883,-2.4864768981933594
1700006760576630500,9.587630615234374,3.2405242919921875,-57.94626235961914,-2.58892822265625
1700006760586575600,9.59757568359375,3.0716629028320312,-57.78982925415039,-2.437122344970703
1700006760596521700,9.607521728515625,2.6346511840820312,-57.94072341918945,-2.2360916137695312
1700006760606466600,9.617466552734374,3.041107177734375,-57.903743743896484,-2.3400955200195312
1700006760616411400,9.627411376953125,3.2954330444335938,-57.977989196777344,-2.2492713928222656
1700006760626356500,9.6373564453125,3.264617919921875,-57.78316116333008,-2.1976051330566406
1700006760636301600,9.647301513671875,3.49652099609375,-57.596981048583984,-2.0987167358398438
1700006760646246400,9.657246337890625,3.1015625,-57.802799224853516,-2.1812705993652344
1700006760656192500,9.667192626953126,3.0998001098632812,-57.59349822998047,-2.0597152709960938
1700006760666137300,9.677137451171875,3.3666763305664062,-57.8240966796875,-2.1646041870117188
1700006760676082700,9.687082763671874,3.5548934936523438,-57.712650299072266,-2.1782913208007812
1700006760686027500,9.697027587890625,3.4969940185546875,-57.745216369628906,-2.3345069885253906
1700006760695972400,9.706972412109375,3.1133575439453125,-57.71802520751953,-2.0809402465820312
1700006760705917700,9.716917724609376,2.9914169311523438,-57.555301666259766,-2.0401763916015625
1700006760715863600,9.726863525390625,2.789306640625,-57.67481231689453,-2.0347633361816406
1700006760725808600,9.73680859375,3.046173095703125,-57.746299743652344,-2.2158164978027344
1700006760735753500,9.74675341796875,2.886566162109375,-57.480560302734375,-2.1174583435058594
1700006760745698600,9.756698486328125,3.413299560546875,-57.562644958496094,-2.013927459716797
1700006760755643600,9.7666435546875,3.19158935546875,-57.676292419433594,-2.0589065551757812
1700006760765588500,9.77658837890625,3.1654052734375,-57.52031326293945,-2.1676483154296875
1700006760775534600,9.78653466796875,3.3458175659179688,-57.26533889770508,-2.0234603881835938
1700006760785479400,9.7964794921875,3.5607070922851562,-57.47651290893555,-2.1687278747558594
1700006760795424500,9.806424560546875,3.4546127319335938,-57.29683303833008,-2.1870193481445312
1700006760805369600,9.81636962890625,3.480133056640625,-57.559288024902344,-2.0288543701171875
1700006760815314400,9.826314453125,3.551727294921875,-57.49517822265625,-2.137928009033203
1700006760825259500,9.836259521484376,3.6782684326171875,-57.39582824707031,-2.332286834716797
1700006760835205600,9.84620556640625,3.6740951538085938,-57.36678695678711,-2.1347999572753906
1700006760845150500,9.856150390625,3.8621902465820312,-57.06090545654297,-2.2056121826171875
1700006760855095600,9.866095458984375,3.7467727661132812,-57.17874526977539,-2.1311798095703125
1700006760865040600,9.87604052734375,4.076820373535156,-57.1829833984375,-1.9831962585449219
1700006760874985500,9.8859853515625,3.9687423706054688,-57.254173278808594,-1.6319351196289062
1700006760884930600,9.8959306640625,4.278099060058594,-57.49574279785156,-1.6090850830078125
1700006760894876400,9.90587646484375,4.446807861328125,-57.4989128112793,-1.5821380615234375
1700006760904821800,9.91582177734375,4.7389678955078125,-57.416690826416016,-1.5390434265136719
1700006760914766600,9.9257666015625,4.670539855957031,-57.35226821899414,-1.5343017578125
1700006760924711400,9.93571142578125,4.5334014892578125,-57.31127166748047,-1.2287445068359375
1700006760934656500,9.945656494140625,4.804222106933594,-57.326019287109375,-1.0402183532714844
1700006760944601600,9.9556015625,4.6219940185546875,-57.27611541748047,-0.8225364685058594
1700006760954547500,9.96554736328125,4.7517547607421875,-57.258323669433594,-0.5089035034179688
1700006760964492500,9.975492431640625,4.696907043457031,-57.434879302978516,-0.34047698974609375
1700006760974437400,9.985437255859376,5.009346008300781,-57.396175384521484,-0.06898117065429688
1700006760984382700,9.9953828125,5.094184875488281,-57.641380310058594,0.08530044555664062
1700006760994327600,10.00532763671875,5.58551025390625,-57.59170150756836,0.3726806640625
1700006761004272400,10.0152724609375,5.601226806640625,-57.571372985839844,0.407501220703125
1700006761014218500,10.025218505859375,5.5676422119140625,-57.5930290222168,0.5149993896484375
1700006761024163600,10.03516357421875,5.439735412597656,-57.639156341552734,0.9160842895507812
1700006761034108400,10.0451083984375,5.535850524902344,-57.833656311035156,1.0672531127929688
1700006761044053500,10.055053466796876,5.6402435302734375,-57.75192642211914,1.1378822326660156
1700006761053998600,10.06499853515625,6.0850830078125,-57.71271896362305,1.16241455078125
1700006761063943700,10.074943603515624,5.694068908691406,-57.74928283691406,1.2923660278320312
1700006761073889500,10.0848896484375,5.629432678222656,-57.881134033203125,1.3835830688476562
1700006761083834400,10.09483447265625,6.00103759765625,-57.91454315185547,1.2666854858398438
1700006761093779500,10.104779541015626,5.7446136474609375,-58.24863815307617,1.4918098449707031
1700006761103724500,10.114724609375,5.870903015136719,-58.334815979003906,1.4096603393554688
1700006761113669600,10.124669677734374,5.803070068359375,-58.33695602416992,1.3596687316894531
1700006761123614500,10.134614501953125,5.672294616699219,-58.23939514160156,1.0953445434570312
1700006761133560300,10.144560302734375,5.726371765136719,-58.37556838989258,1.1478958129882812
1700006761143505700,10.154505615234376,5.537605285644531,-58.315338134765625,0.8153305053710938
1700006761153450500,10.164450439453125,5.1230621337890625,-58.14222717285156,0.78973388671875
1700006761163395300,10.174395263671874,5.092994689941406,-58.3266487121582,0.6619033813476562
1700006761173340700,10.184340576171875,5.538047790527344,-58.381134033203125,0.6246490478515625
1700006761183285500,10.194285400390624,5.537818908691406,-58.47740936279297,0.7269515991210938
1700006761193230600,10.204230712890626,5.398170471191406,-58.45257568359375,0.3077812194824219
1700006761203176400,10.214176513671875,5.732025146484375,-58.52474594116211,0.22317123413085938
1700006761213121500,10.22412158203125,5.5959625244140625,-58.58888626098633,0.4840736389160156
1700006761223066600,10.234066650390625,5.4758148193359375,-58.6810188293457,0.2759666442871094
1700006761233011500,10.244011474609374,5.4561920166015625,-58.50938034057617,0.20286178588867188
1700006761242956300,10.253956298828125,5.6937103271484375,-58.64598083496094,0.3105278015136719
1700006761252901600,10.263901611328125,5.2606201171875,-58.719886779785156,0.3233528137207031
1700006761262847500,10.273847412109374,5.1907196044921875,-58.79005432128906,0.2408447265625
1700006761272792600,10.28379248046875,5.1114501953125,-58.82657241821289,0.3363151550292969
1700006761282737400,10.2937373046875,5.1257476806640625,-58.83551788330078,0.29248809814453125
1700006761292682500,10.3036826171875,5.172721862792969,-58.73960876464844,0.2576026916503906
1700006761302627600,10.313627685546875,5.320838928222656,-58.9888916015625,0.2679786682128906
1700006761312572400,10.323572509765626,5.07623291015625,-58.94544982910156,0.016033172607421875
1700006761322518500,10.3335185546875,5.157386779785156,-58.865386962890625,-0.29347991943359375
1700006761332463600,10.343463623046874,5.015739440917969,-58.934730529785156,-0.39334869384765625
1700006761342408400,10.353408447265625,5.419677734375,-58.927494049072266,-0.3762969970703125
1700006761352353500,10.363353515625,5.206916809082031,-58.872982025146484,-0.23822402954101562
1700006761362298400,10.37329833984375,5.177726745605469,-59.03533172607422,-0.14702224731445312
1700006761372243500,10.383243408203125,4.641792297363281,-59.07701873779297,-0.2623405456542969
1700006761382189600,10.393189453125,3.9437026977539062,-58.99456024169922,-0.4096031188964844
1700006761392134400,10.403134521484375,4.429046630859375,-58.96037292480469,-0.5905532836914062
1700006761402079500,10.41307958984375,4.4990692138671875,-59.136749267578125,-0.5922431945800781
1700006761412024600,10.423024658203126,4.1728363037109375,-58.65822982788086,-0.508148193359375
1700006761421969400,10.432969482421875,3.9252700805664062,-58.96323013305664,-0.5580902099609375
1700006761431914500,10.44291455078125,4.3689727783203125,-59.025543212890625,-0.6343841552734375
1700006761441860400,10.4528603515625,4.493934631347656,-59.084571838378906,-0.6748085021972656
1700006761451805700,10.4628056640625,4.0481109619140625,-59.112613677978516,-0.5820236206054688
1700006761461750500,10.47275048828125,3.9974365234375,-59.23581314086914,-0.6244087219238281
1700006761471695400,10.4826953125,3.7098312377929688,-59.14030075073242,-0.5908966064453125
1700006761481640700,10.492640625,3.4881591796875,-59.15188980102539,-0.4223670959472656
1700006761491585500,10.50258544921875,3.52337646484375,-59.26700210571289,-0.3980560302734375
1700006761501531600,10.51253173828125,3.8218765258789062,-59.25234603881836,-0.19283676147460938
1700006761511476500,10.5224765625,4.004936218261719,-59.45377731323242,-0.453887939453125
1700006761521421300,10.53242138671875,3.54296875,-59.326515197753906,-0.16327285766601562
1700006761531366700,10.54236669921875,3.5018463134765625,-59.444766998291016,-0.15088272094726562
1700006761541311500,10.5523115234375,3.9207229614257812,-59.423789978027344,0.09774017333984375
1700006761551256300,10.56225634765625,3.6599044799804688,-59.644718170166016,0.3704032897949219
1700006761561202400,10.572202392578125,3.50885009765625,-59.683319091796875,0.6520347595214844
1700006761571147500,10.5821474609375,3.751373291015625,-59.715187072753906,0.9114112854003906
1700006761581092600,10.592092529296876,3.2964630126953125,-59.84980392456055,0.7948760986328125
1700006761591037400,10.602037353515625,3.57952880859375,-59.97221374511719,1.1446533203125
1700006761600982500,10.611982421875,3.3352203369140625,-60.084468841552734,1.4077911376953125
1700006761610927600,10.621927734375,3.8348846435546875,-59.8675651550293,1.7101631164550781
1700006761620873500,10.63187353515625,3.7817764282226562,-60.140254974365234,2.0690536499023438
1700006761630818600,10.641818603515626,3.77325439453125,-60.41875076293945,2.3011627197265625
1700006761640763600,10.651763671875,3.7823410034179688,-60.63019561767578,2.560394287109375
1700006761650708500,10.66170849609375,3.6836395263671875,-60.73841857910156,3.1395835876464844
1700006761660653600,10.671653564453125,4.0687408447265625,-60.90448760986328,3.4139671325683594
1700006761670598400,10.681598388671874,4.178230285644531,-61.17108917236328,3.5664520263671875
1700006761680544500,10.69154443359375,4.080451965332031,-61.26640701293945,3.723430633544922
1700006761690489600,10.701489501953125,4.039985656738281,-61.36493682861328,4.139133453369141
1700006761700434400,10.711434326171876,4.0722503662109375,-61.542388916015625,4.566108703613281
1700006761710379500,10.721379638671875,4.3878173828125,-61.45642852783203,4.917095184326172
1700006761720324600,10.73132470703125,4.4063568115234375,-61.69858932495117,4.928371429443359
1700006761730269400,10.74126953125,4.1085205078125,-61.68741989135742,5.191841125488281
1700006761740215600,10.751215576171875,4.207908630371094,-61.724849700927734,5.507305145263672
1700006761750160400,10.761160400390626,4.3617706298828125,-61.798301696777344,5.832294464111328
1700006761760105700,10.771105712890625,4.694091796875,-62.06079864501953,6.136375427246094
1700006761770050600,10.781050537109374,4.50738525390625,-62.22789764404297,6.656879425048828
1700006761779995400,10.790995361328125,3.75347900390625,-62.146759033203125,6.740447998046875
1700006761789940500,10.8009404296875,4.249298095703125,-62.255149841308594,6.806114196777344
1700006761799886600,10.810886474609376,4.2407684326171875,-62.436519622802734,6.994419097900391
1700006761809831700,10.820831787109375,4.298210144042969,-62.43673324584961,7.170257568359375
1700006761819776500,10.830776611328124,4.176231384277344,-62.503700256347656,7.442096710205078
1700006761829721300,10.840721435546875,4.3741912841796875,-62.5595703125,7.59857177734375
1700006761839666700,10.850666748046875,4.4501495361328125,-62.64814758300781,7.297035217285156
1700006761849611500,10.860611572265626,4.7574615478515625,-62.84905242919922,6.998443603515625
1700006761859557600,10.8705576171875,4.431449890136719,-62.95208740234375,7.252651214599609
1700006761869502500,10.88050244140625,4.62603759765625,-63.0462760925293,7.199653625488281
1700006761879447600,10.890447509765625,4.723487854003906,-63.22093963623047,7.0857696533203125
1700006761889392600,10.900392578125,4.796234130859375,-63.458492279052734,7.10650634765625
1700006761899337500,10.91033740234375,4.877006530761719,-63.44551086425781,6.942970275878906
1700006761909282600,10.920282470703125,5.0505523681640625,-63.627933502197266,7.017005920410156
1700006761919228700,10.930228759765624,5.330146789550781,-63.59633255004883,7.250194549560547
1700006761929173500,10.940173583984375,5.119544982910156,-63.61883544921875,7.234607696533203
1700006761939118600,10.95011865234375,5.642509460449219,-63.5091667175293,7.224582672119141
1700006761949063400,10.9600634765625,5.349601745605469,-63.42682647705078,7.493480682373047
1700006761959008500,10.970008544921875,5.68096923828125,-63.49528121948242,7.313716888427734
1700006761968953600,10.97995361328125,5.4186553955078125,-63.72920608520508,7.161842346191406
1700006761978899000,10.98989892578125,5.7646331787109375,-63.842430114746094,7.28729248046875
1700006761988844000,10.999843994140624,5.621757507324219,-64.03800201416016,7.544307708740234
1700006761998789000,11.0097890625,5.656776428222656,-64.00804901123047,7.528621673583984
1700006762008734000,11.01973388671875,5.821662902832031,-63.99717712402344,7.794010162353516
1700006762018678800,11.0296787109375,5.884132385253906,-63.95455551147461,7.661155700683594
1700006762028624100,11.0396240234375,5.896186828613281,-64.08008575439453,7.871486663818359
1700006762038569000,11.04956884765625,6.072883605957031,-64.21776580810547,7.803447723388672
1700006762048515000,11.05951513671875,6.140190124511719,-64.20028686523438,8.114116668701172
1700006762058460000,11.0694599609375,5.895500183105469,-64.22801208496094,8.336956024169922
1700006762068405000,11.079405029296876,6.260581970214844,-64.1219711303711,8.589584350585938
1700006762078350000,11.08935009765625,6.259185791015625,-64.13262176513672,8.662479400634766
1700006762088295000,11.099294921875,6.174583435058594,-64.403564453125,8.956615447998047
1700006762098240000,11.109239990234375,5.830718994140625,-64.24070739746094,8.889297485351562
1700006762108186000,11.11918603515625,5.8313446044921875,-64.51937866210938,9.127559661865234
1700006762118131000,11.129130859375,5.813407897949219,-64.31739044189453,9.22060775756836
1700006762128076000,11.139075927734375,5.570060729980469,-64.56536865234375,9.346229553222656
1700006762138021000,11.149021240234376,5.790771484375,-64.59638977050781,9.459781646728516
1700006762147966000,11.158966064453125,5.422615051269531,-64.60733032226562,9.48635482788086
1700006762157911000,11.1689111328125,5.353263854980469,-64.54014587402344,9.49826431274414
1700006762167857000,11.17885693359375,5.466606140136719,-64.54380798339844,9.568679809570312
1700006762177802000,11.188802001953125,5.633567810058594,-64.78427124023438,9.716110229492188
1700006762187747000,11.1987470703125,5.4513397216796875,-64.69417572021484,9.897541046142578
1700006762197692000,11.20869189453125,5.3855743408203125,-64.63330841064453,9.901519775390625
1700006762207637000,11.218636962890624,5.353919982910156,-64.5855941772461,10.51925277709961
1700006762217582000,11.22858203125,5.324729919433594,-64.78453826904297,10.542789459228516
1700006762227528200,11.238528076171875,5.31634521484375,-64.5390396118164,10.755851745605469
1700006762237473000,11.24847314453125,5.312782287597656,-64.47174072265625,11.053348541259766
1700006762247417900,11.25841796875,5.1264495849609375,-64.8058853149414,11.237442016601562
1700006762257363200,11.26836328125,5.0011749267578125,-64.8056869506836,11.511985778808594
1700006762267308000,11.27830810546875,5.075431823730469,-64.71067810058594,11.89605712890625
1700006762277252900,11.2882529296875,5.2808074951171875,-64.65007781982422,12.234920501708984
1700006762287199000,11.298198974609376,5.073516845703125,-64.38990783691406,12.539409637451172
1700006762297144000,11.30814404296875,5.280220031738281,-64.5,12.77248764038086
1700006762307089200,11.318089111328124,5.461647033691406,-64.3351821899414,12.931686401367188
1700006762317034000,11.328033935546875,5.784423828125,-64.27273559570312,13.356590270996094
1700006762326978800,11.337978759765624,5.924591064453125,-64.5038833618164,13.784969329833984
1700006762336924200,11.347924072265625,6.233116149902344,-64.32975006103516,14.116565704345703
1700006762346870000,11.3578701171875,6.368186950683594,-63.95856475830078,14.166786193847656
1700006762356815000,11.367815185546876,6.379310607910156,-63.85898971557617,14.621143341064453
1700006762366760000,11.377760009765625,6.972679138183594,-63.71965408325195,14.526081085205078
1700006762376705000,11.387705078125,7.455635070800781,-63.8872184753418,14.92776107788086
1700006762386650000,11.397650146484375,7.8243865966796875,-63.56243133544922,15.215682983398438
1700006762396595000,11.407594970703125,8.053825378417969,-63.31111145019531,15.272518157958984
1700006762406541000,11.417541015625,8.179039001464844,-63.34779357910156,15.418487548828125
1700006762416486100,11.427486083984375,8.805465698242188,-63.08393859863281,15.536617279052734
1700006762426431000,11.437430908203124,9.378372192382812,-63.09857177734375,15.75003433227539
1700006762436376000,11.4473759765625,9.610877990722656,-62.799163818359375,15.689029693603516
1700006762446321000,11.45732080078125,9.622352600097656,-62.75869369506836,15.807136535644531
1700006762456266000,11.467265869140626,9.993865966796875,-62.5188102722168,15.969863891601562
1700006762466212000,11.477212158203125,9.997802734375,-62.36958694458008,16.17812728881836
1700006762476157000,11.487156982421874,10.148101806640625,-62.29517364501953,16.113296508789062
1700006762486102000,11.49710205078125,10.504981994628906,-62.30973434448242,15.914253234863281
1700006762496047000,11.507047119140625,10.472564697265625,-62.2520637512207,16.096782684326172
1700006762505992000,11.516991943359375,10.499183654785156,-61.932106018066406,16.387203216552734
1700006762515937000,11.52693701171875,10.888389587402344,-61.979461669921875,16.26348114013672
1700006762525883000,11.5368828125,10.967964172363281,-61.64189147949219,16.292991638183594
1700006762535828200,11.546828125,11.545166015625,-61.539276123046875,16.031600952148438
1700006762545773000,11.55677294921875,11.741134643554688,-61.643310546875,16.265365600585938
1700006762555718000,11.5667177734375,11.549697875976562,-61.45663070678711,16.202354431152344
1700006762565663000,11.5766630859375,11.702079772949219,-61.38103485107422,15.928409576416016
1700006762575608000,11.586608154296876,12.18621826171875,-61.62748718261719,15.895286560058594
1700006762585554200,11.59655419921875,12.28656005859375,-61.7755126953125,15.997562408447266
1700006762595499000,11.6064990234375,12.209747314453125,-61.613285064697266,16.06356430053711
1700006762605443800,11.61644384765625,12.360832214355469,-61.672996520996094,15.93893814086914
1700006762615389200,11.62638916015625,12.418235778808594,-61.717796325683594,15.647804260253906
1700006762625334000,11.636333984375,12.545661926269531,-61.83847427368164,15.360542297363281
1700006762635278800,11.64627880859375,12.452987670898438,-61.77907180786133,15.502277374267578
1700006762645224200,11.65622412109375,12.677696228027344,-61.66184616088867,15.612972259521484
1700006762655170000,11.666170166015625,12.616851806640625,-61.83027648925781,15.538284301757812
1700006762665115100,11.676115234375,12.831413269042969,-61.633304595947266,15.550125122070312
1700006762675060000,11.68606005859375,12.599906921386719,-61.75608825683594,15.517364501953125
1700006762685005000,11.696005126953125,12.85650634765625,-61.77490234375,15.48654556274414
1700006762694950100,11.7059501953125,12.720085144042969,-61.71300506591797,15.58761215209961
1700006762704895000,11.71589501953125,12.411262512207031,-61.77772521972656,15.768577575683594
1700006762714841000,11.725841064453125,12.207511901855469,-61.853660583496094,16.068660736083984
1700006762724786000,11.735785888671876,12.551933288574219,-61.7242317199707,15.930168151855469
1700006762734731000,11.74573095703125,12.58038330078125,-61.420616149902344,15.948726654052734
1700006762744676000,11.755676025390626,12.638229370117188,-61.38690948486328,15.850669860839844
1700006762754621000,11.765620849609375,12.714996337890625,-61.50114440917969,15.883956909179688
1700006762764566000,11.77556591796875,12.437408447265625,-61.625484466552734,16.330528259277344
1700006762774512000,11.78551220703125,12.616798400878906,-61.616092681884766,16.33547592163086
1700006762784457000,11.79545703125,12.695724487304688,-61.43001174926758,16.558063507080078
1700006762794402000,11.805402099609376,12.732933044433594,-61.419044494628906,16.544620513916016
1700006762804347100,11.81534716796875,12.557197570800781,-61.37769317626953,16.72313690185547
1700006762814292000,11.8252919921875,12.863235473632812,-61.28418731689453,16.853050231933594
1700006762824237000,11.835237060546875,12.691009521484375,-61.43065643310547,17.131542205810547
1700006762834183000,11.845182861328125,12.449203491210938,-61.38633728027344,17.201557159423828
1700006762844128300,11.855128173828126,12.968070983886719,-61.390872955322266,17.266742706298828
1700006762854073000,11.865072998046875,13.12860107421875,-61.381038665771484,17.444873809814453
1700006762864018000,11.875017822265624,13.557464599609375,-61.18486404418945,17.530975341796875
1700006762873963000,11.884962890625,13.267112731933594,-61.232635498046875,17.67243194580078
1700006762883908000,11.894908203125,13.763198852539062,-61.17955780029297,17.974315643310547
1700006762893854000,11.90485400390625,14.264137268066406,-61.23064422607422,18.13003158569336
1700006762903799000,11.914799072265625,13.947265625,-61.06398010253906,18.351364135742188
1700006762913744000,11.924743896484374,14.159683227539062,-60.85169219970703,18.572715759277344
1700006762923689200,11.934689208984375,14.764518737792969,-60.9041633605957,18.684619903564453
1700006762933634000,11.944634033203124,14.797073364257812,-60.621429443359375,19.063400268554688
1700006762943579000,11.954578857421875,15.408309936523438,-60.69169998168945,19.279010772705078
1700006762953524200,11.964524169921875,15.438423156738281,-60.50786590576172,19.515445709228516
1700006762963470000,11.974469970703124,15.613494873046875,-60.59734344482422,19.809406280517578
1700006762973415000,11.984414794921875,16.036354064941406,-60.498291015625,20.001949310302734
1700006762983359500,11.994359375,16.220199584960938,-60.11592102050781,20.21978759765625
1700006762993304600,12.0043046875,16.607162475585938,-60.0098876953125,20.49982452392578
1700006763003249700,12.014249755859375,17.0703125,-60.18295669555664,20.68946075439453
1700006763013194500,12.024194580078126,17.35980224609375,-60.14488220214844,21.21927261352539
1700006763023140600,12.034140625,17.33191680908203,-60.08890151977539,21.628398895263672
1700006763033085700,12.044085693359374,17.749794006347656,-60.01865768432617,21.940692901611328
1700006763043030500,12.054030517578125,17.961517333984375,-59.73162841796875,22.562976837158203
1700006763052975600,12.0639755859375,18.315765380859375,-59.600303649902344,22.55681610107422
1700006763062920400,12.07392041015625,18.433914184570312,-59.53251647949219,22.91663360595703
1700006763072865500,12.083865478515625,18.629776000976562,-59.25105285644531,23.51260757446289
1700006763082810600,12.093810546875,18.383567810058594,-59.243003845214844,23.677303314208984
1700006763092756500,12.103756591796875,18.685752868652344,-59.44832229614258,24.071273803710938
1700006763102701600,12.11370166015625,19.06109619140625,-59.49596405029297,24.217960357666016
1700006763112646700,12.123646728515626,19.24401092529297,-59.515262603759766,24.466251373291016
1700006763122591500,12.133591552734375,19.198623657226562,-59.36532211303711,24.436630249023438
1700006763132536600,12.14353662109375,19.245140075683594,-59.3317756652832,24.616546630859375
1700006763142481700,12.153481689453125,19.25048828125,-59.58692932128906,24.935836791992188
1700006763152427800,12.163427734375,18.990432739257812,-59.414710998535156,25.07821273803711
1700006763162372600,12.17337255859375,19.178131103515625,-59.60894012451172,24.69237518310547
1700006763172317400,12.1833173828125,18.9591064453125,-59.65742874145508,24.941951751708984
1700006763182262800,12.1932626953125,19.106048583984375,-59.82029724121094,24.84808349609375
1700006763192207600,12.20320751953125,18.785995483398438,-59.72578048706055,24.828651428222656
1700006763202152400,12.21315234375,18.53839111328125,-59.69232940673828,24.974143981933594
1700006763212098600,12.2230986328125,18.407058715820312,-59.68833541870117,25.078941345214844
1700006763222043400,12.23304345703125,18.651092529296875,-60.027164459228516,24.897945404052734
1700006763231988700,12.24298876953125,18.520652770996094,-60.28828811645508,25.03643798828125
1700006763241933600,12.25293359375,18.38134002685547,-60.20261001586914,25.038551330566406
1700006763251878400,12.26287841796875,18.17945098876953,-60.39020538330078,25.099639892578125
1700006763261823700,12.27282373046875,17.59662628173828,-60.409732818603516,25.386302947998047
1700006763271769600,12.28276953125,17.21246337890625,-60.198543548583984,25.142505645751953
1700006763281714700,12.292714599609376,17.44464874267578,-60.27684020996094,25.136322021484375
1700006763291659500,12.302659423828125,17.527488708496094,-60.33511734008789,25.143600463867188
1700006763301604600,12.3126044921875,17.553565979003906,-60.70191955566406,25.598228454589844
1700006763311549700,12.3225498046875,17.01323699951172,-60.53466033935547,25.491844177246094
1700006763321495600,12.33249560546875,17.01617431640625,-60.77997589111328,25.46866226196289
1700006763331440600,12.342440673828126,16.966827392578125,-60.98519515991211,25.52059555053711
1700006763341385700,12.3523857421875,16.539588928222656,-61.0530891418457,25.528499603271484
1700006763351330600,12.36233056640625,16.292877197265625,-61.32259750366211,25.797664642333984
1700006763361275600,12.372275634765625,16.22869873046875,-61.4901237487793,25.543804168701172
1700006763371220500,12.382220458984374,16.156517028808594,-61.48746871948242,25.848438262939453
1700006763381165600,12.39216552734375,15.526542663574219,-61.74828338623047,26.01165008544922
1700006763391111700,12.402111572265625,15.307731628417969,-61.91365051269531,26.086536407470703
1700006763401056500,12.412056396484376,15.186782836914062,-61.83334732055664,26.072940826416016
1700006763411001600,12.422001708984375,14.983818054199219,-62.05706024169922,25.884765625
1700006763420946700,12.43194677734375,14.697052001953125,-62.047847747802734,26.079036712646484
1700006763430891500,12.4418916015625,14.506439208984375,-62.076717376708984,26.125812530517578
1700006763440836600,12.451836669921875,14.268821716308594,-62.378116607666016,26.1229248046875
1700006763450782500,12.461782470703126,13.956932067871094,-62.46405029296875,26.07718276977539
1700006763460727800,12.471727783203125,13.579154968261719,-62.3564567565918,25.927288055419922
1700006763470672600,12.481672607421874,13.359886169433594,-62.301307678222656,26.09134292602539
1700006763480617500,12.491617431640625,13.326438903808594,-62.35923767089844,25.92013168334961
1700006763490562600,12.5015625,13.058830261230469,-62.24679946899414,25.951297760009766
1700006763500507600,12.511507568359375,12.876388549804688,-62.06999588012695,25.918598175048828
1700006763510453800,12.521453857421875,12.855979919433594,-62.26363754272461,25.751895904541016
1700006763520398600,12.531398681640624,12.30230712890625,-62.46560287475586,25.681285858154297
1700006763530343400,12.541343505859375,12.317390441894531,-62.45006561279297,25.715484619140625
1700006763540288800,12.551288818359374,12.265983581542969,-62.35043716430664,25.927711486816406
1700006763550233600,12.561233642578125,12.141708374023438,-62.424373626708984,25.818073272705078
1700006763560178400,12.571178466796875,12.182388305664062,-62.599910736083984,25.598045349121094
1700006763570124500,12.58112451171875,11.680458068847656,-62.34368896484375,25.24985122680664
1700006763580069600,12.591069580078125,11.93292236328125,-62.335933685302734,25.287952423095703
1700006763590014700,12.6010146484375,11.963386535644531,-62.46546173095703,25.291156768798828
1700006763599959600,12.61095947265625,11.545356750488281,-62.37998962402344,24.86919403076172
1700006763609904600,12.620904541015625,11.725753784179688,-62.27400207519531,24.902545928955078
1700006763619849700,12.630849609375,11.776679992675781,-62.088783264160156,24.930606842041016
1700006763629795600,12.640795654296875,12.05621337890625,-62.28913497924805,24.903484344482422
1700006763639740700,12.65074072265625,11.909194946289062,-62.13391876220703,24.912784576416016
1700006763649685500,12.660685546875,12.219566345214844,-61.95073699951172,24.73141098022461
1700006763659630600,12.670630615234375,12.039443969726562,-62.01642990112305,24.701194763183594
1700006763669575700,12.68057568359375,12.46795654296875,-61.919742584228516,24.571426391601562
1700006763679520500,12.6905205078125,12.626235961914062,-61.78840637207031,24.422138214111328
1700006763689466600,12.700466552734374,12.563636779785156,-62.0045051574707,24.396053314208984
1700006763699411700,12.71041162109375,12.844352722167969,-61.93159866333008,24.063583374023438
1700006763709356500,12.7203564453125,12.630462646484375,-61.77850341796875,23.97366714477539
1700006763719301600,12.730301513671876,12.68994140625,-61.54838943481445,24.09634780883789
1700006763729246700,12.740246826171875,12.762504577636719,-61.526363372802734,24.313613891601562
1700006763739191600,12.750191650390626,12.834541320800781,-61.45259094238281,24.247852325439453
1700006763749136600,12.76013671875,12.725173950195312,-61.134918212890625,24.29190444946289
