time,seconds_elapsed,z,y,x
1700007849998560300,0.035560302734375,0.018490180936455724,0.019376316121220587,0.10825203833100386
1700007850008506000,0.045506103515625,0.1581780530899763,0.007533025853335857,0.15431629962790758
1700007850018452200,0.0554521484375,0.2745189519256353,0.05742401496469974,0.14842247408265247
1700007850028399000,0.065399169921875,0.3553185817807913,0.08503390642404555,0.1223125936564058
1700007850038345200,0.07534521484375,0.40607437102794647,0.09663608141243457,0.08902549681086093
1700007850048291300,0.085291259765625,0.36623452807068824,0.08341945696473121,0.08592077226117253
1700007850058238000,0.095238037109375,0.29758243212699886,0.02450023500621319,0.0671873662865255
1700007850068183600,0.10518359375,0.2357674887269735,-0.015185001911222934,0.024535785810207017
1700007850078129700,0.115129638671875,0.18467501487135887,-0.013222469666600227,-0.03185183074488304
1700007850088076800,0.125076904296875,0.11633914526998997,0.0013026070311665534,-0.05005030329234432
1700007850098022700,0.135022705078125,0.09566285246610641,-0.002028290957212448,-0.026178949907352214
1700007850107968800,0.14496875,0.08402852877378464,0.010964169345796108,0.015383049800549633
1700007850117916000,0.154916015625,0.050158992397785186,0.018308102367818355,0.026442532746982758
1700007850127861800,0.16486181640625,0.03891103767454624,0.020663433322310448,0.013666601271484977
1700007850137808000,0.174807861328125,0.06150865392982959,0.024754502028226853,0.016885558751411733
1700007850147754800,0.184754638671875,0.09355155940055847,0.019538813206553457,0.014544464101537596
1700007850157700900,0.194700927734375,0.09221125070750713,0.018432605530321597,0.0028796356730978003
1700007850167646700,0.204646728515625,0.030717209824919697,0.024697218883037567,0.0011374499145778826
1700007850177593600,0.214593505859375,-0.026125790381431577,0.022585341295599935,0.03193096039569936
1700007850187539700,0.224539794921875,-0.06583119330406188,0.0665367112249136,0.05244233582830056
1700007850197485600,0.234485595703125,-0.14241115963757037,0.06808364840596914,0.05250556009050924
1700007850207432700,0.2444326171875,-0.2006675337731838,0.04609218135029077,0.03479934630570933
1700007850217378800,0.25437890625,-0.21054653823077676,0.04935673610419035,0.049507250490784645
1700007850227325700,0.26432568359375,-0.18234511061906813,0.03698123865574598,0.04573041709950194
1700007850237271800,0.274271728515625,-0.13577099097073078,-0.0009624152913689613,-0.010682243706943699
1700007850247217700,0.2842177734375,-0.09475567449331283,-0.004303834673762321,-0.024575120023463386
1700007850257164800,0.294164794921875,-0.032682372418045995,0.008870996458828448,-0.004899739328099531
1700007850267111000,0.30411083984375,0.02579553551375866,0.01279839903563261,0.0003000012933043763
1700007850277056800,0.314056884765625,0.06843465380072593,0.019415186826884746,-0.025791774937382432
1700007850287003600,0.324003662109375,0.10933657303154468,0.023851123447716234,-0.0136258137450146
1700007850296949800,0.33394970703125,0.1375952837884426,0.021595161214470863,0.011308233543112873
1700007850306895600,0.3438955078125,0.14198562770187853,0.029086101491749283,0.00016302909158403053
1700007850316842800,0.3538427734375,0.12103285604417323,0.04074176023304462,0.026806196693913077
1700007850326788600,0.36378857421875,0.10065291583836078,0.04049947590976953,0.058960312020732084
1700007850336734700,0.373734619140625,0.09943944839537143,0.03396393666118383,0.08715215895334258
1700007850346681900,0.383681884765625,0.10261457130014896,0.025386370190978048,0.08082739464491605
1700007850356627700,0.393627685546875,0.11007599322199821,0.03667173431515693,0.0645634383905679
1700007850366573800,0.40357373046875,0.10553542718291282,0.05506050070375204,0.0480502337826183
1700007850376520700,0.413520751953125,0.11508183868527412,0.04077916963398456,0.03513347819747869
1700007850386466800,0.423466796875,0.11976795067489146,0.024548750323057172,0.07000314979304094
1700007850396413000,0.433412841796875,0.13758593143820763,0.020067805516719817,0.12202716431114823
1700007850406359600,0.443359619140625,0.10133154575228691,0.03722615332752466,0.15187005725326017
1700007850416305700,0.4533056640625,0.027183775001764297,0.07415858440548181,0.14908191523891873
1700007850426252800,0.463252685546875,0.013776011896133422,0.08384177403002976,0.15023725015334785
1700007850436198700,0.47319873046875,0.009539981761574745,0.06499065082669257,0.17154924704488367
1700007850446144800,0.483144775390625,0.01810264292359352,0.04162555733025074,0.16633595110969618
1700007850456091600,0.493091552734375,0.052936055895686146,0.004470423412322998,0.15088533879853785
1700007850466037800,0.503037841796875,0.10732640225291251,-0.01451163269430399,0.11861773946015164
1700007850475984000,0.51298388671875,0.17216975356340408,0.0073792965963482855,0.08531007475061342
1700007850485930800,0.5229306640625,0.22130057195723055,0.022418168035149573,0.07371147539222146
1700007850495876900,0.532876953125,0.20254969425797462,0.02484130352884531,0.06426419058251194
1700007850505822700,0.54282275390625,0.14551555539369582,0.04133943386524915,0.07390905749066733
1700007850515769600,0.55276953125,0.08097907807528971,0.06738923640102147,0.07503402466629631
1700007850525715700,0.5627158203125,-0.0006131634622812271,0.056680503121018404,0.06166267544776201
1700007850535661800,0.572661865234375,-0.05816401967704296,0.030532793168723583,0.08790446602483279
1700007850545608700,0.582608642578125,-0.12222060452401637,0.04397299723923206,0.1427348660334479
1700007850555554800,0.592554931640625,-0.1595546021401882,0.03767448161691427,0.13184459304092452
1700007850565500700,0.602500732421875,-0.11709960824847221,0.04045300641953945,0.09968074633795768
1700007850575447800,0.61244775390625,-0.02401215922832489,0.060383157031238074,0.09260699942628853
1700007850585393700,0.6223935546875,0.08054010213613509,0.05303454783409833,0.05566434834841638
1700007850595339800,0.63233984375,0.18617840517163275,0.03997866690605879,0.04368328444450162
1700007850605287000,0.642286865234375,0.2630073778301477,0.04111439293771982,0.033709194715134796
1700007850615232800,0.652232666015625,0.32591888429522514,0.039082594849169254,0.041769733307603744
1700007850625179600,0.6621796875,0.33800504340827464,0.02179828257113695,0.04652734876400791
1700007850635125800,0.672125732421875,0.33786768076419826,-0.01151391218304634,0.04974185383110307
1700007850645072000,0.68207177734375,0.2939280012726784,-0.02980389437228441,0.05384420198285952
1700007850655018800,0.692018798828125,0.24377836122512817,-0.044703065079450606,0.051629238480282946
1700007850664964600,0.701964599609375,0.17578619049489497,-0.05300064556449651,0.053631883539585395
1700007850674910700,0.71191064453125,0.11651917801201343,-0.03497574405223131,0.06090599359525367
1700007850684857900,0.72185791015625,0.035789690783619876,-0.035137656615674494,0.07478175780512392
1700007850694803700,0.7318037109375,-0.0362941331744194,-0.03992722897976637,0.03811864518783986
1700007850704749800,0.741749755859375,-0.10391396346092223,-0.06688800888061523,0.011491535954456776
1700007850714696700,0.75169677734375,-0.15875789880454538,-0.08819616984724998,0.0051680502876639365
1700007850724642800,0.761642822265625,-0.22290976071953772,-0.11191636039167642,-0.01612484004460275
1700007850734589000,0.7715888671875,-0.308600669747591,-0.09324965384453535,-0.04384948045741766
1700007850744535800,0.781535888671875,-0.40025019491910935,-0.05590834970474243,-0.08010892591094598
1700007850754482000,0.79148193359375,-0.4681307219684124,-0.06231704770326614,-0.11117379839606582
1700007850764427800,0.801427734375,-0.49081017128825183,-0.06379442677944898,-0.05700012699682265
1700007850774374700,0.811374755859375,-0.36709552881419655,-0.0839034410893917,0.08365750350430608
1700007850784320800,0.82132080078125,-0.051047465670108795,-0.14424509706646202,0.20765057932725176
1700007850794266600,0.8312666015625,0.3214537215799093,-0.2193763258963823,0.19081881485600025
1700007850804213800,0.8412138671875,0.625377631688118,-0.249834300263226,0.076613238415448
1700007850814159600,0.85115966796875,0.7884837888300419,-0.217288121445477,-0.019155070019396953
1700007850824106800,0.861106689453125,0.7087801375180482,-0.14234569318592546,-0.048598305252590214
1700007850834052900,0.871052978515625,0.401071448174119,-0.005309796845912933,0.0070352689316496245
1700007850843998700,0.880998779296875,0.1142681842148304,0.1581482424736023,0.11138150459630414
1700007850853945900,0.89094580078125,-0.12516308771669865,0.2120426220074296,0.16605176387345416
1700007850863891700,0.9008916015625,-0.08689911577403545,0.19977146171629429,0.2059640692787245
1700007850873837800,0.910837890625,0.07259528061151505,0.195351891708374,0.22899587570019064
1700007850883784700,0.92078466796875,0.2608610134512186,0.151537299901247,0.24396814817618578
1700007850893730600,0.93073046875,0.4537140740811825,0.04862433017641306,0.1956789134393446
1700007850903676700,0.9406767578125,0.6258996097356081,0.000011105915904045104,0.06480771374152973
1700007850913623800,0.950623779296875,0.7017378177911042,0.007880524116754531,-0.046399164940230546
1700007850923569700,0.960569580078125,0.6042874973863362,0.03924655323922634,-0.10330237090121953
1700007850933515800,0.970515869140625,0.15812661516368387,0.09781681562960147,-0.20321568388603625
1700007850943463000,0.980462890625,-0.5066764334619045,0.19685002131164073,-0.3952921341203153
1700007850953408800,0.99040869140625,-1.1165537136793136,0.3149582220807671,-0.5351409689892083
1700007850963355000,1.00035498046875,-1.4221756598770618,0.3190302938252687,-0.44519846693128345
1700007850973301800,1.0103017578125,-1.4033154765844345,0.11054098038524389,-0.168755305477418
1700007850983248000,1.020247802734375,-1.1768921547859907,-0.11432575962096451,0.06704250532258302
1700007850993194000,1.030194091796875,-0.8904735062301158,-0.20500731654316184,0.16403103516818954
1700007851003140600,1.040140625,-0.684044924712181,-0.2502972415998578,0.18049619481675325
1700007851013086700,1.050086669921875,-0.5999433307021856,-0.2833198057577014,0.15282291926499456
1700007851023033900,1.060033935546875,-0.43499242247641084,-0.23748919795304535,0.11346567219290882
1700007851032979700,1.069979736328125,-0.1620604474812746,-0.12037965283244847,0.07406756338747218
1700007851042925800,1.07992578125,0.16181494828760623,-0.07164017184376716,-0.016356091517210007
1700007851052872700,1.089872802734375,0.3640706280350685,-0.06197159526646137,-0.11072212737211957
1700007851062818800,1.09981884765625,0.3427203814923763,-0.010748188507556915,-0.10526598085807636
1700007851072765700,1.109765625,0.21900047832131384,0.06919570130109787,-0.0774374234130606
1700007851082712600,1.119712646484375,0.10050678536593913,0.09407470649182796,-0.05136171925105154
1700007851092658400,1.129658447265625,0.09430091646313667,0.011527356186509132,-0.02490362817533314
1700007851102604500,1.1396044921875,0.2284486901462078,-0.030776246535778044,-0.004493384162802249
1700007851112551700,1.1495517578125,0.40646658521592616,-0.00734334850013256,0.027745080412644892
1700007851122497500,1.15949755859375,0.5842594393581152,-0.006025836160778999,0.05475812022369354
1700007851132443600,1.169443603515625,0.7088081945687532,-0.028225977531075475,0.006182542826142162
1700007851142390800,1.179390869140625,0.713176326650381,-0.02640285375714302,-0.07353362090755254
1700007851152336600,1.189336669921875,0.5276859037429094,0.040837621822953224,-0.08228007767125964
1700007851162282800,1.19928271484375,0.38043314929306504,0.08916355357468128,-0.029655809404794124
1700007851172229600,1.209229736328125,0.2859709047883749,0.042021278649568554,0.0477739969573915
1700007851182175700,1.21917578125,0.310566416862607,-0.07158230417668819,0.13880473264344037
1700007851192121900,1.229121826171875,0.5108627792358398,-0.1863467474758625,0.19184786564279346
1700007851202068500,1.239068359375,0.709800712737441,-0.25654490381777284,0.19726130552627144
1700007851212014600,1.2490146484375,0.7516781990021467,-0.23811580541878938,0.17763718865644185
1700007851221961700,1.258961669921875,0.5874146885186433,-0.21208967601954937,0.039610345050320024
1700007851231907600,1.268907470703125,0.2806920876026153,-0.1673018552660942,-0.05601206580754369
1700007851241853700,1.278853759765625,0.07066869646310805,-0.07901800713539123,-0.07983140587750821
1700007851251800600,1.288800537109375,-0.04126198471486568,-0.01967325324118137,-0.07051390776019544
1700007851261746700,1.29874658203125,-0.10256897859275341,-0.0020434885263442993,-0.09239837077744305
1700007851271692500,1.308692626953125,-0.08731412631571292,0.03082826898396015,-0.0973039342040196
1700007851281639700,1.3186396484375,-0.12795885591506959,0.06921236017495393,-0.09390534127429127
1700007851291585800,1.328585693359375,-0.24865561187267302,0.09868424611389637,-0.050866410014778374
1700007851301531600,1.33853173828125,-0.29339257922172546,0.12815525527000426,-0.0067634297203272575
1700007851311478500,1.348478515625,-0.2088034939557314,0.1313601887911558,-0.008544687113910912
1700007851321424600,1.358424560546875,-0.03606792320311069,0.12749620683938265,-0.06007741555031389
1700007851331370500,1.36837060546875,0.14613690216243266,0.1644435432255268,-0.08175678444951773
1700007851341317600,1.378317626953125,0.2246621573448181,0.24129034380167722,-0.2166784651145339
1700007851351263500,1.388263427734375,0.10121814850568771,0.2746484235242009,-0.2828501058867201
1700007851361209600,1.398209716796875,0.01827566140294075,0.2653966110542416,-0.21665303841233252
1700007851371156700,1.40815673828125,-0.0199421333104372,0.23140783221274613,-0.18241941796429453
1700007851381102600,1.4181025390625,-0.14775895040631293,0.2444435471355915,-0.13618457674030213
1700007851391049700,1.4280498046875,-0.32515257609784604,0.29979426295757294,-0.11242639227304607
1700007851400995800,1.437995849609375,-0.39068098706305027,0.3018789602771401,-0.11459149788506329
1700007851410941700,1.447941650390625,-0.32660628203749653,0.23425328477174043,-0.1144781371710822
1700007851420888600,1.457888671875,-0.1717927369445562,0.14398147769421338,-0.09294760215803981
1700007851430834400,1.46783447265625,-0.009572130465507507,0.06156506029218435,-0.05146729851737618
1700007851440780500,1.477780517578125,0.12044541154503821,0.010666939964890479,-0.0028396073400974273
1700007851450727700,1.487727783203125,0.1682990496098995,-0.04568769220262765,0.027540552550181743
1700007851460673500,1.497673583984375,0.1525795024305582,-0.06358370663821697,0.025821035281196236
1700007851470619600,1.50761962890625,0.12999591470062732,-0.05195289007723331,0.04263827803675085
1700007851480566800,1.51756689453125,0.03294248465895652,-0.012643792995810508,0.09862688990347086
1700007851490512600,1.5275126953125,-0.04721884729266167,0.025682722789049147,0.18069904217878355
1700007851500458800,1.537458740234375,-0.11248656149506568,0.11964110942482947,0.1908493013258092
1700007851510405600,1.547405517578125,-0.23587620979845522,0.24048516489863395,0.19229265026822684
1700007851520351700,1.557351806640625,-0.3240519213795662,0.2897644518524408,0.20337609861213712
1700007851530297600,1.567297607421875,-0.42634091398715973,0.282912101739645,0.17055274682082236
1700007851540244500,1.577244384765625,-0.7804547961533069,0.2657856103718281,0.22661687160916624
1700007851550190600,1.587190673828125,-1.4024521377533674,0.38995676444172855,0.5069355958547442
1700007851560137500,1.597137451171875,-2.7488778523802755,0.6863081934690475,1.2807551187120376
1700007851570083600,1.60708349609375,-3.6525644759267566,0.7706675616323947,1.1540114838056266
1700007851580029700,1.61702978515625,-3.7484646442800758,0.8339718668073415,0.4027835493216291
1700007851589976600,1.6269765625,-3.506683009830117,1.0274451051622628,0.15865452976161612
1700007851599922700,1.636922607421875,-2.807247623762488,1.0606412723213434,0.07397387548834085
1700007851609868500,1.64686865234375,-2.037834446105361,0.9343886358022689,-0.12949671474052593
1700007851619815700,1.656815673828125,-1.3880728992670774,0.8796972606718539,-0.23441035676328464
1700007851629761800,1.66676171875,-0.6157493871212005,0.826807382005453,-0.16662620276054366
1700007851639707600,1.676707763671875,0.2498936292350292,0.7476590264886617,-0.18437036936897783
1700007851649654500,1.686654541015625,1.0012497566759586,0.6944616893082857,-0.35053616980984803
1700007851659600600,1.6966005859375,1.7472610159575939,0.6461240671187639,-0.2043833028933033
1700007851669546500,1.70654638671875,2.1713339850127698,0.4488602043092251,0.006801094849593937
1700007851679493600,1.71649365234375,2.539737673816085,0.11208207234740257,0.25519465825259685
1700007851689439500,1.726439453125,2.9305016629874703,-0.11158698230683803,0.456785590481013
1700007851699386600,1.73638671875,3.0146167010009286,-0.2931388967216015,0.46756581809464837
1700007851709332700,1.746332763671875,3.0385820984780785,-0.526526796835661,0.2644501239843666
1700007851719278600,1.756278564453125,2.8560920264303684,-0.7206435937911272,0.06357428122274578
1700007851729225700,1.766225830078125,2.445510991632938,-0.7780231850922107,0.03394325919933617
1700007851739171800,1.776171875,1.6988520820975304,-0.6617875001966953,0.24314634693190454
1700007851749117700,1.78611767578125,0.2583803025513887,-0.4201595950037241,0.6472991753127425
1700007851759064600,1.796064697265625,-1.2135603819698095,0.03132920424342155,0.7055312187246978
1700007851769010400,1.806010498046875,-2.269484562641382,0.6612468174487351,0.11764547862820326
1700007851778956500,1.81595654296875,-3.106113081437349,1.240801440116763,-0.41174496401026844
1700007851788903700,1.825903564453125,-3.490912024724483,1.375059688436985,-0.7504439810320734
1700007851798849500,1.835849609375,-3.5610891382783647,1.195105272346735,-0.745074709083885
1700007851808795600,1.845795654296875,-3.4132594607234,1.1499708301126956,-0.5711163185380399
1700007851818742500,1.855742431640625,-3.2906168313950297,1.2377011360138654,-0.4837360681835562
1700007851828688600,1.865688720703125,-3.562240061879158,1.3030956914663314,-0.3796110923204571
1700007851838634800,1.875634765625,-3.8545898540496824,1.56432962988317,-0.15186244020238518
1700007851848581600,1.88558154296875,-3.8212960717350244,1.7663316271305083,0.0926971345283091
1700007851858527700,1.89552783203125,-3.4427474210143085,1.8789362620472907,0.11307133911307901
1700007851868474600,1.905474609375,-2.6266338669806717,2.1088725604027507,0.037685477934964
1700007851878420500,1.91542041015625,-1.652369147863984,2.2379870160937307,0.12320968862660228
1700007851888366600,1.92536669921875,-0.6524883414536714,2.1572195349425076,0.2957316531611606
1700007851898313500,1.9353134765625,0.5065782337844371,2.245297631368041,0.7831036301616578
1700007851908259600,1.945259521484375,1.4958458762437103,2.3163719860225913,1.1074011238001287
1700007851918205700,1.955205810546875,2.1828449745863674,2.1362591645002365,1.0516085094295442
1700007851928152600,1.965152587890625,2.551070968735218,1.68423085154891,0.674886051222682
1700007851938098700,1.9750986328125,2.776495927146077,1.1755869174063205,0.4234854514908045
1700007851948044500,1.98504443359375,2.817098863430321,0.5938958672314882,0.23192188268210737
1700007851957991700,1.99499169921875,2.79656694753319,0.34224633423984047,0.1337452207641676
1700007851967937800,2.004937744140625,2.553628252002597,0.38683424850702286,-0.16290082556186242
1700007851977883600,2.014883544921875,1.9906594379544258,0.23237667724490163,-0.5003766757305711
1700007851987830500,2.02483056640625,1.6452993556082247,-0.19726094020009038,-0.3057912931489758
1700007851997776400,2.0347763671875,1.4175339715510606,-0.4998258369147777,-0.18958872507177293
1700007852007722500,2.044722412109375,1.1698992271587252,-0.5513426736623048,-0.06947572838545311
1700007852017669600,2.054669677734375,0.6392842842265963,-0.4651794709473848,-0.0838529804106336
1700007852027615500,2.064615478515625,0.171336225348711,-0.30535306612849233,0.014135958649171516
1700007852037561600,2.0745615234375,-0.19714198999553917,-0.4784457797557115,0.0019802345813834106
1700007852047508700,2.0845087890625,-0.462338694563508,-0.5872685580462217,-0.2699457257259637
1700007852057454600,2.09445458984375,-0.4858230305254459,-0.7208768180251122,-0.31273342217076566
1700007852067401700,2.104401611328125,-0.8399284371241926,-0.943006826543808,-0.3878808714831248
1700007852077347300,2.114347412109375,-0.9615405543610454,-0.32329964170753955,-0.3553257056413218
1700007852087293400,2.12429345703125,-1.1286994940251112,0.07695172225534916,0.36058621998541057
1700007852097240300,2.134240234375,-1.0679241228058933,0.710375297755003,0.8492104986019432
1700007852107186400,2.1441865234375,-1.023567386946082,1.2211106512188912,1.017228247052431
1700007852117132500,2.154132568359375,-0.9794169873133302,1.1634008050501345,0.8943363922033458
1700007852127079400,2.164079345703125,-1.1145526029899715,0.8403764731526374,0.7071677338853478
1700007852137025300,2.174025390625,-1.2874477482184767,1.1476198830723763,0.549776593389362
1700007852146971400,2.183971435546875,-1.2424087291829287,1.3273650403261184,0.43402635392323136
1700007852156918300,2.193918212890625,-1.115447213742137,1.0183464374274014,0.1921771889287047
1700007852166864400,2.203864501953125,-0.9888418182626366,0.7987146754652261,-0.021575817193184046
1700007852176810200,2.213810302734375,-0.9133569536894559,0.7184761866241693,0.03179813692942261
1700007852186757400,2.22375732421875,-0.8209639166742563,0.7735118451476096,-0.15811828572675585
1700007852196703500,2.233703369140625,-0.7649439232885837,0.570745877790451,-0.32015042042899877
1700007852206649300,2.2436494140625,-0.8025590759336948,0.5141512993872165,0.2398131473885849
1700007852216596500,2.253596435546875,-0.9270780205279588,0.7860112612366675,0.8469954529009759
1700007852226542600,2.26354248046875,-0.9314274479091167,1.3191507542103529,1.0291718558896332
1700007852236489200,2.2734892578125,-0.5467442034235224,1.8270880013883113,1.0332714732281862
1700007852246435300,2.283435302734375,0.2724455797176808,2.218053650611639,0.9215123492248356
1700007852256381200,2.293381103515625,1.0779669395230709,2.0205624087870118,1.037027830087021
1700007852266328300,2.303328369140625,2.358175968659669,1.5230916105657815,1.3757998392798005
1700007852276274400,2.3132744140625,5.636313111579418,1.0232657736510038,1.605581677725911
1700007852286220300,2.32322021484375,10.293411772680281,0.6059054539769888,1.2485869794264435
1700007852296167400,2.33316748046875,17.960295476841925,0.7720294976353644,-1.8997423187106848
1700007852306113500,2.343113525390625,16.448986074006555,0.5321563271552324,-3.008282821804285
1700007852316059400,2.353059326171875,6.540293749636411,-0.6265764860838652,-1.3596493533372878
1700007852326006500,2.363006591796875,1.9615232137106358,-0.5267980149924755,-1.6444295870363712
1700007852335952400,2.372952392578125,-1.1792903019689023,0.19871230805218218,-2.3114864059381186
1700007852345898500,2.3828984375,-2.0217815753184256,0.29302082329988477,-1.7771955509722233
1700007852355845400,2.392845458984375,-1.49923654159531,-0.1926204209178686,-1.3637790004879236
1700007852365791200,2.402791259765625,-0.3604083061352372,-1.1206886215269565,-1.4138742799997328
1700007852375737300,2.4127373046875,0.49689621320366856,-1.8052151922762394,-1.4508404672168194
1700007852385684500,2.4226845703125,1.1816450484015046,-1.96994982740283,-1.3175387889690697
1700007852395630300,2.43263037109375,1.6745593523621558,-1.6469436156839132,-1.1876763644549995
1700007852405577500,2.442577392578125,1.688353922828287,-1.0651438444375991,-0.9513502919971942
1700007852415523300,2.4525234375,1.2794272311091421,-0.49768005705773827,-0.6649428954876959
1700007852425469400,2.462469482421875,1.031806076850742,-0.0016734861701726913,-0.39273726200573145
1700007852435416600,2.47241650390625,0.9445287754140794,0.375608505615592,-0.04959009733549319
1700007852445362400,2.482362548828125,0.9894950214743614,0.6837579244643449,0.2140969607213512
1700007852455308500,2.49230859375,1.0177718524098396,0.9282295286506413,0.23131938674431293
1700007852465255200,2.502255126953125,0.8330759408809244,1.0465040258973837,0.16829115856438875
1700007852475201300,2.512201171875,0.6692575438164174,1.0458458542495965,0.279541346664913
1700007852485147400,2.5221474609375,0.7139617779396474,1.0787509295076132,0.4161449525348842
1700007852495094300,2.53209423828125,1.0262459585055708,1.1545084735423325,0.13294957687444983
1700007852505040400,2.542040283203125,1.3759092910036443,1.2362608740776777,-0.277372149399668
1700007852514986200,2.551986328125,1.2366940047979353,1.0508902781575917,-0.569156124380976
1700007852524933400,2.561933349609375,0.890710968247801,0.8848299473851918,-0.7821500557638704
1700007852534879500,2.57187939453125,0.8930547548949718,0.9355009809583424,-0.8298835015151649
1700007852544825300,2.581825439453125,0.9624525546394288,0.8894237049162387,-0.7963556912489235
1700007852554772500,2.5917724609375,1.0253379037499428,0.6499585307151079,-0.909836816739291
1700007852564718600,2.601718505859375,1.2382675377249717,0.5010305365294218,-1.0217390024751425
1700007852574665200,2.611665283203125,1.5546410334311425,0.5545914463251829,-0.8803099126774817
1700007852584611300,2.621611328125,1.719316047324985,0.6210925017148256,-0.7916779086962342
1700007852594557200,2.63155712890625,1.7097662748217581,0.7220616438955069,-0.8144673942618071
1700007852604504300,2.64150439453125,1.6841710841856896,0.6967290497183799,-0.8007643014714121
1700007852614450400,2.651450439453125,1.5574036300122738,0.4517518340975046,-0.7950231274709105
1700007852624396300,2.661396240234375,1.4662849968470633,0.360798474496603,-0.5199877869883552
1700007852634343400,2.671343505859375,1.6120340687356889,0.3672469199836254,-0.27707519401339814
1700007852644289500,2.68128955078125,1.7809318148910998,0.3915530937224626,-0.16546209088461472
1700007852654235400,2.6912353515625,1.76043497030735,0.34127193624973295,-0.14845179150868207
1700007852664182500,2.7011826171875,1.5834335588037967,0.2774918302565813,-0.1339825549176894
1700007852674128400,2.71112841796875,1.4744517905592918,0.3289052066296339,-0.19734399710735304
1700007852684074500,2.721074462890625,1.48674545494318,0.4879027594089508,-0.28274850867576895
1700007852694021400,2.731021484375,1.6612312303639947,0.7295727501779794,-0.21498958044582978
1700007852703967200,2.74096728515625,1.961436996731907,1.1559165867745875,-0.36790954861082137
1700007852713913300,2.750913330078125,2.2959739256381986,1.0563175639033318,-0.20537890806822104
1700007852723860200,2.760860107421875,1.9238474169194697,0.16133856294751167,-0.004672503589373081
1700007852733806300,2.770806396484375,0.7962569070495664,0.45035190417170523,-0.5565289902590215
1700007852743753500,2.78075341796875,0.7144739652454852,1.242699967214465,-0.7492725991651416
1700007852753699300,2.79069921875,1.2488486991025507,0.9199614665210246,-0.36842133405786004
1700007852763645400,2.8006455078125,1.1406640725851058,0.25628888323009014,-0.17157396136103198
1700007852773592600,2.810592529296875,0.9257098009146749,-0.27907588457763194,-0.19569023855095727
1700007852783538400,2.820538330078125,0.971396908595413,-0.9757529118478298,-0.1974773411634378
1700007852793484500,2.830484619140625,1.042830159690231,-1.738454024645686,-0.3040797217244282
1700007852803431200,2.84043115234375,0.9636708443880081,-2.3910306289047,-0.43413712082132694
1700007852813377300,2.850377197265625,0.996121015485376,-2.8863568163126705,-0.6874139627538621
1700007852823323400,2.860323486328125,0.9862146115642041,-3.2163264373034237,-0.6570162672068923
1700007852833270300,2.870270263671875,0.9527449612259864,-3.4568040034174916,-0.6407722577620297
1700007852843216400,2.88021630859375,0.8294108425021172,-3.5620898397535083,-0.4348536715928465
1700007852853162200,2.890162353515625,0.8458758012212813,-3.4222289491206404,-0.17239768056776372
1700007852863109400,2.900109375,0.8889888206303119,-3.3543384851992126,-0.07934413381721823
1700007852873055500,2.910055419921875,0.6814472363691777,-3.229841752436757,0.1114288326030597
1700007852883002400,2.92000244140625,0.4351942286588251,-2.9103982016354797,0.1602174134304747
1700007852892948500,2.929948486328125,0.12544650776796043,-2.3800585685133933,0.20386019233465194
1700007852902894300,2.939894287109375,-0.45762116452232,-1.7621552182286977,0.24523769318796693
1700007852912841200,2.94984130859375,-1.0654502069730312,-1.087415882000327,0.15628686904851347
1700007852922787300,2.959787353515625,-1.3842904581189155,-0.5605728588223458,0.4077422311749309
1700007852932733200,2.969733154296875,-1.3570784799359739,-0.07470423558950423,0.8282752626009285
1700007852942680300,2.979680419921875,-0.8395406799156219,0.6048240884810686,0.767851773559302
1700007852952626400,2.98962646484375,-0.8935445842385291,1.53066642973423,0.7904610802523792
1700007852962572300,2.999572265625,-2.1633133217729625,2.2095839284300802,0.05490395843517035
1700007852972519400,3.00951953125,-3.318112156563997,2.4089316117763517,-0.7020866312287748
1700007852982465300,3.01946533203125,-4.812469255554676,2.4150159001260993,0.10241820847783237
1700007852992411400,3.029411376953125,1.3796926089346409,1.9415385564327239,-0.25905348910521714
1700007853002358500,3.039358642578125,0.48760823344178494,1.8805828602105379,0.008251147527433932
1700007853012304400,3.049304443359375,-1.5122598354279995,0.8903770601183175,0.14455244598258285
1700007853022251300,3.059251220703125,-0.5770727427244186,0.3517389697283506,0.6631507513739169
1700007853032197400,3.069197265625,-0.7643243300855159,-0.21799451614916324,0.7918931588821113
1700007853042143200,3.079143310546875,-0.5076969356160611,-0.8851865057379007,0.9769912214711308
1700007853052090400,3.08909033203125,-0.3966320774871856,-1.2491174330413342,0.9757746122229843
1700007853062036200,3.0990361328125,-0.22762922698948532,-1.3818681994080542,0.8414952480494976
1700007853071982800,3.10898291015625,-0.0644750294547528,-1.2983020274490118,0.628683614430949
1700007853081930000,3.118929931640625,0.04900989542789757,-1.0642138701111077,0.4868552596500143
1700007853091875800,3.128875732421875,0.1464928029280156,-0.7494833193063736,0.534956515800394
1700007853101822000,3.138822021484375,0.14041965702679007,-0.44718671813905236,0.6921466172989458
1700007853111769000,3.14876904296875,0.12875263664126396,-0.15642390289902686,0.8951232317321002
1700007853121715000,3.15871484375,0.13042900888826697,0.11902794596254825,1.0419385446127503
1700007853131661000,3.1686611328125,0.20030867386553436,0.41520635651051996,1.0989541249070316
1700007853141607700,3.178607666015625,0.31525603598356244,0.7570908717006445,1.1595469791661948
1700007853151553800,3.1885537109375,0.3583540039539337,1.085692711469531,1.1491448276173322
1700007853161501000,3.1985009765625,0.39022798259854313,1.3407184428960084,1.1082467808440326
1700007853171446800,3.20844677734375,0.4567045246014371,1.3883043699353932,1.0430885183654726
1700007853181393000,3.218392822265625,0.4176526171514764,1.306916126537323,1.0269698158007114
1700007853191340000,3.228340087890625,0.1476502476011403,1.327028355717659,0.998114454324916
1700007853201286000,3.238285888671875,0.006958166841138154,1.3835112904399633,0.7377240540601313
1700007853211232000,3.24823193359375,0.38394554132819175,1.4343249473541975,0.5397591303091496
1700007853221179000,3.258178955078125,0.6434697532176971,1.5241215381354092,0.5172875515863299
1700007853231125000,3.268125,0.4376899909973144,1.6185200697541235,0.7237562459189444
1700007853241071000,3.278071044921875,0.3617091596007347,1.7006418881237506,0.5839511040613055
1700007853251017700,3.288017822265625,0.23591420372128485,1.6251579003334045,0.3396029801242053
1700007853260963800,3.2979638671875,0.3762251762092113,1.577002648973465,0.47414442929998035
1700007853270909700,3.30790966796875,0.5529202982425689,1.4942010316461323,0.592739975194633
1700007853280856800,3.31785693359375,0.651927784961462,1.452442203325033,0.5906417608063668
1700007853290803000,3.327802978515625,-0.4448012843072414,1.3495622590869665,0.6976110201846808
1700007853300748800,3.337748779296875,0.19165537527799606,1.4220306984484195,1.137225111112371
1700007853310696000,3.347696044921875,0.8221265307128429,1.1943635140687228,0.5677911561707034
1700007853320641800,3.357641845703125,1.0807108314037321,0.907254545161128,0.4454726442301646
1700007853330589000,3.3675888671875,1.6029612660944461,0.74395081962049,0.9472287550877779
1700007853340535000,3.37753515625,0.6842822405993938,0.5714905586779118,0.9938831003654748
1700007853350481000,3.38748095703125,-0.13625442710611968,0.21338673009276388,0.5925833963934332
1700007853360427800,3.397427734375,-0.0749544474909082,-0.0781961693584919,0.41369262747932223
1700007853370374000,3.407373779296875,0.3013467530965805,-0.3157821056842804,0.4627794606009498
1700007853380319700,3.41731982421875,0.44772860646340995,-0.6345727455347776,0.6975985990945249
1700007853390267000,3.427266845703125,0.5189700978457927,-0.9526929387778044,0.9789083071388304
1700007853400212700,3.437212646484375,0.6041407458594068,-1.243610067796707,1.0797931320369243
1700007853410158800,3.447158935546875,0.5993616948893293,-1.4865256747126578,0.9931240256264805
1700007853420106000,3.45710595703125,0.6103671826262027,-1.5748796654701231,1.0643077589396386
1700007853430051800,3.4670517578125,0.6296469795703887,-1.6406114900529383,1.0947869952902196
1700007853439998000,3.476998046875,0.8150199866432696,-2.006863553780317,0.9812237444743513
1700007853449945000,3.486945068359375,0.7166600771129131,-1.9579753119707106,1.0902202718965708
1700007853459891000,3.496890869140625,0.33193945975899697,-1.84107794829607,1.2472096997238695
1700007853469837800,3.506837890625,0.06297646146006881,-1.973088709950447,1.319901426447183
1700007853479783700,3.51678369140625,0.09061484836153685,-2.1342782198160886,1.2461407553181052
1700007853489729800,3.526729736328125,0.39850481255650516,-2.1533225275039674,1.0098385751925407
1700007853499677000,3.536677001953125,0.5282407611466944,-2.091785232001543,0.7746824232969433
1700007853509622800,3.546622802734375,0.25866964088678357,-2.059028040781617,0.7979767896447331
1700007853519569000,3.55656884765625,-0.18023739775009454,-2.1402894429296255,1.0327947956271468
1700007853529516000,3.56651611328125,-0.4372353790976107,-2.162150561603904,1.1806564757555722
1700007853539462000,3.5764619140625,-0.5202165907755494,-2.2434785992473363,1.044559613831341
1700007853549408000,3.586407958984375,-0.5875435755953192,-2.2410575095802545,0.7384782334282994
1700007853559355000,3.59635498046875,-0.8062978240706026,-1.8996482106864452,0.41168296815734357
1700007853569301000,3.606301025390625,-1.1489935095131396,-1.3141150981307028,0.15367909770291296
1700007853579246800,3.616246826171875,-1.5161071585059165,-0.5964391219735146,0.14808631919715554
1700007853589193700,3.62619384765625,-1.8474563972868023,0.18873568843901156,0.2246730440650135
1700007853599139800,3.636139892578125,-2.1479591007746754,0.8868407026857137,0.28476905471794306
1700007853609087000,3.6460869140625,-2.3163678943693635,1.4745207641422748,0.2764630717307329
1700007853619032800,3.65603271484375,-2.2751941724598406,1.9195231239795683,0.16096936430893838
1700007853628979000,3.66597900390625,-2.1427890046603975,2.1658277888119217,-0.03317961788307875
1700007853638925800,3.67592578125,-1.9129661035515366,2.1798124750226733,-0.24780874925237148
1700007853648872000,3.685871826171875,-1.6711445754826069,1.9948031136304138,-0.39391927486453204
1700007853658817800,3.69581787109375,-1.7807741401113568,1.6498223859906196,-0.3763938107743859
1700007853668765000,3.705764892578125,-1.8690099113166332,1.254164195036888,-0.3538981935888529
1700007853678711000,3.7157109375,-1.3669174446441232,0.8272913661301136,-0.2261480485210195
1700007853688657000,3.725656982421875,-0.8476946872115134,0.41486207311749457,0.02192607366926968
1700007853698603800,3.735603759765625,-0.853699918975681,0.02279869178533554,0.19627759171854703
1700007853708550000,3.7455498046875,-0.9690930155672133,-0.3405553124129772,0.20800416027158497
1700007853718495700,3.755495849609375,-0.7946716836847364,-0.6088321550786495,0.2550654789149761
1700007853728443000,3.76544287109375,-0.5961386777222156,-0.7476151873469352,0.35978699589911844
1700007853738388700,3.775388671875,-0.5049487328864634,-0.7190694763422012,0.44298820700328795
1700007853748334800,3.7853349609375,-0.5121824835322797,-0.6297247209817171,0.572657556630671
1700007853758282000,3.795281982421875,-0.5541570004306733,-0.4927589672684669,0.6659004884734749
1700007853768227800,3.805227783203125,-0.5243148198746145,-0.2765256155729294,0.684609134466201
1700007853778175000,3.815175048828125,-0.520412990130484,-0.04616027815043926,0.7262940938334912
1700007853788121000,3.82512109375,-0.5939397063732147,0.1536415787041187,0.7862676471505313
1700007853798067000,3.83506689453125,-0.6264588510535657,0.3406196098208427,0.7638152845848352
1700007853808013800,3.845013916015625,-0.5882276123367249,0.5021142401129007,0.7523217576026916
1700007853817959700,3.854959716796875,-0.4764356089770794,0.6571230155169964,0.7587036406595259
1700007853827905800,3.86490576171875,-0.45675124981999393,0.8173316976517438,0.7576626802392303
1700007853837853000,3.87485302734375,-0.5093533975861966,0.9644178633630275,0.7456408185340464
1700007853847798800,3.884798828125,-0.3949437590740621,1.0974211431860923,0.699253161368519
1700007853857745000,3.894744873046875,-0.23350611966624854,1.1612895119845867,0.6863022751849144
1700007853867692000,3.904692138671875,-0.16758724807873368,1.1719850935220717,0.67338127268292
1700007853877638000,3.914637939453125,-0.06878785115256905,1.092376719278097,0.6156552060317247
1700007853887584000,3.924583984375,0.13588979504480958,1.0267296503692864,0.5273763994023204
1700007853897531000,3.93453076171875,0.4028080627083778,0.9527835396707057,0.41021081324554975
1700007853907477000,3.94447705078125,0.39715822025313974,0.8576035022854804,0.38529169524013995
1700007853917423900,3.954423828125,0.3152536978960037,0.7309539754033089,0.3819841781273484
1700007853927369700,3.96436962890625,0.35432211808934805,0.7063602168947458,0.29914650310594587
1700007853937315800,3.97431591796875,0.35039179290309547,0.826081990340352,0.22805885057840494
1700007853947262700,3.9842626953125,0.2013574157334864,1.0086521418869494,0.2372234596889466
1700007853957208800,3.994208740234375,0.13637027203813196,1.1883470302581787,0.26413777009956535
1700007853967155000,4.004155029296875,0.19018238011598587,1.3106681725472211,0.23575733265914023
1700007853977101800,4.014101806640625,0.24981296521425245,1.3446639656513928,0.19234578696126117
1700007853987048000,4.0240478515625,0.21199439895153044,1.2618752078056334,0.16125119519131256
1700007853996993800,4.033993896484375,0.08856821803003549,1.05080026178658,0.13702442509792745
1700007854006941000,4.04394091796875,-0.06521861436367035,0.7456488557100296,0.06564854847984387
1700007854016887000,4.053886962890625,-0.11303951920270919,0.43439387206137176,0.043999355523195116
1700007854026833700,4.063833740234375,-0.026290625554323196,0.10056816016435623,0.09311509507889859
1700007854036779800,4.07377978515625,0.09195464559793472,-0.29704408746659755,0.31303251471519467
1700007854046726000,4.083725830078125,0.18713110278658568,-0.7392553552806377,0.5572100678583607
1700007854056672800,4.0936728515625,0.29338907209038734,-1.1644950300276278,0.680419062365219
1700007854066619000,4.103618896484375,0.4312495826862752,-1.4491624510020016,0.7543432534929364
1700007854076564500,4.113564453125,0.6166529118321835,-1.6439304053425787,0.7498113822169602
1700007854086511600,4.12351171875,0.7163467003148049,-1.7747995957463978,0.7308559949215501
1700007854096457500,4.13345751953125,0.7340086867988109,-1.9374732066899536,0.7411055131919682
1700007854106403600,4.143403564453125,0.6715770728051662,-2.1901281173318625,0.7711257537286729
1700007854116350500,4.1533505859375,0.7655364823542535,-2.4599983666688203,0.7839039867591112
1700007854126296600,4.163296630859375,0.8371859334830194,-2.636411749151349,0.7937010850869118
1700007854136242400,4.173242431640625,0.11614800661206244,-2.6927818711489437,0.8227544533528387
1700007854146189600,4.183189453125,-0.6223289116419851,-2.609357738009095,0.6592317512992769
1700007854156135700,4.1931357421875,-0.5263267442189157,-2.444329088371992,0.6161094526052474
1700007854166082300,4.203082275390625,-0.3603054302826524,-2.2550731754511593,0.7372692960299551
1700007854176028400,4.2130283203125,-0.821753313486278,-2.1627157942712305,0.7409819598775357
1700007854185974500,4.222974609375,-1.3148783375881612,-1.9836399145811796,0.7997059515248983
1700007854195921400,4.23292138671875,-1.5294365956783293,-1.7395669543236494,0.9027602294165641
1700007854205867500,4.242867431640625,-1.6127027617774903,-1.376862938466668,0.9834333102826028
1700007854215813400,4.2528134765625,-1.6580137296222148,-0.912575447922945,1.13283505945988
1700007854225760500,4.262760498046875,-1.55707030640468,-0.3166168029427528,1.3939762780919671
1700007854235706600,4.27270654296875,-1.348318981027603,0.33165245951116085,1.7443397216834127
1700007854245652500,4.282652587890625,-1.3132093814626336,0.9728764796286821,2.037576087430119
1700007854255599600,4.292599609375,-1.4298342118062077,1.5344535470575094,2.0854479918040334
1700007854265545700,4.302545654296875,-1.7298736816965044,1.8832552942901848,2.0258863802887497
1700007854275491600,4.31249169921875,-2.046201730825752,1.9711130259633063,2.0826474013000724
1700007854285438500,4.3224384765625,-2.1226032718524337,1.8273112887501715,2.238245959290862
1700007854295384300,4.33238427734375,-1.9478852951109409,1.4025959301382303,2.3324739566482604
1700007854305331500,4.34233154296875,-1.6188988399386406,0.9309908100575208,2.2571552424222228
1700007854315277600,4.352277587890625,-1.3336695472978055,0.6162719496905803,2.0490441146448255
1700007854325223400,4.362223388671875,-1.2358217520080506,0.33647359605729577,1.8157291336365042
1700007854335170600,4.372170654296875,-1.230825405025482,0.021577625557780266,1.6262451110482214
1700007854345116700,4.38211669921875,-1.2328675783775747,-0.29536183346807954,1.462443518988043
1700007854355062500,4.3920625,-1.219677257414907,-0.4304407505214214,1.3690771068960428
1700007854365009700,4.402009765625,-1.1803541318081319,-0.46824937991201876,1.263383274281025
1700007854374955500,4.41195556640625,-0.9977098921120167,-0.48838440544605255,1.138342790030688
1700007854384901600,4.421901611328125,-0.867039804476872,-0.49797757869958875,1.0846874799497426
1700007854394848500,4.4318486328125,-0.8795360056955367,-0.4578822996765375,1.1688782135479152
1700007854404794400,4.44179443359375,-0.8512942460734396,-0.24774609581232068,1.3371931913793087
1700007854414741500,4.451741455078125,-0.7525144306305795,-0.02132861923277378,1.4573029412291942
1700007854424687400,4.461687255859375,-0.5789864673912525,0.19289339264035224,1.4599536018684505
1700007854434633500,4.471633544921875,-0.3922526933591813,0.4352466894984245,1.4262386715322732
1700007854444580600,4.48158056640625,-0.2610427266936749,0.595778027716279,1.4083695451036096
1700007854454526500,4.4915263671875,-0.09653020988516509,0.6985691246271133,1.3903189246281982
1700007854464472600,4.50147265625,0.06173267194405198,0.7962935857981442,1.341790602172166
1700007854474419700,4.511419677734375,0.1704781472146511,0.8553156836092471,1.2740008221462369
1700007854484365600,4.521365478515625,0.1499743614334613,0.893112038040161,1.1211810812190175
1700007854494311700,4.531311767578125,-0.021834157602116464,0.9331459422647953,0.9327513899892568
1700007854504258300,4.54125830078125,-0.29150106638669965,0.979124434107542,0.7703506046377122
1700007854514204400,4.551204345703125,-0.545480503630638,1.0012649542450904,0.6580829465903342
1700007854524151600,4.561151611328125,-0.5994202566761523,1.0269313104212283,0.6410189990647137
1700007854534097400,4.571097412109375,-0.45834458342604334,1.0936100604653358,0.7037821100350469
1700007854544043500,4.58104345703125,-0.3322820261189714,1.2055892569601534,0.6924262379579246
1700007854553990700,4.59099072265625,-0.17649748056940734,1.2240303380578756,0.8090682386320084
1700007854563936500,4.6009365234375,0.045776247268915174,1.0943395437836647,0.9753186120837927
1700007854573882600,4.610882568359375,0.3781518334228545,0.9474965391784906,1.1108237917251884
1700007854583829500,4.62082958984375,0.6588332535009831,0.7969745537996291,1.3797053222857414
1700007854593775600,4.630775634765625,0.695723672068119,0.6119236913532018,1.5948583313986657
1700007854603721700,4.6407216796875,0.6841209125578404,0.49331543210744855,1.7029659471571446
1700007854613668400,4.65066845703125,0.3987432974874973,0.4857523033767938,1.7138611429199575
1700007854623614500,4.660614501953125,0.011335121550038456,0.48970191778540606,1.5496455632314086
1700007854633560300,4.670560302734375,0.10324410137534142,0.3852659762769937,1.5472930087558925
1700007854643507500,4.680507568359375,0.33065226949267085,0.2284440139710903,1.5413967903241514
1700007854653453600,4.69045361328125,0.2727250177135691,0.11670622501671314,1.4395708851836622
1700007854663400400,4.700400390625,0.028518822997808453,0.07458090147078036,1.280892773617059
1700007854673346600,4.7103466796875,0.10836677815131843,-0.01187339314520359,1.172316809694469
1700007854683292400,4.72029248046875,0.3032161271650344,-0.07453413971960544,1.2397079457916318
1700007854693239600,4.730239501953125,0.5932885489881038,-0.2710059753686189,1.3384915606267749
1700007854703185700,4.740185546875,0.9402396999180317,-0.47020694372057914,1.383216253016144
1700007854713131500,4.750131591796875,1.2133177323203532,-0.608926263102889,1.3200180385641753
1700007854723078400,4.760078369140625,1.2139548611801116,-0.7579355058312416,1.2085253104120492
1700007854733024500,4.7700244140625,0.8007598444920033,-0.8744166899204253,1.0914328625567258
1700007854742970400,4.779970458984375,0.33293314697146414,-1.039392148065567,0.9049030135989189
1700007854752917500,4.78991748046875,-0.03779876558370888,-1.3189473405927419,0.6817625128634274
1700007854762863400,4.79986328125,-0.1799590922653675,-1.6781757892936466,0.41825098490342494
1700007854772810500,4.809810546875,0.07008534361720084,-2.037670195454359,0.10974467890840023
1700007854782756600,4.819756591796875,0.32497064365968104,-2.3482447956234216,0.029656631388701497
1700007854792702500,4.829702392578125,0.29507264126315713,-2.6590865222960707,0.24854774931771678
1700007854802649600,4.839649658203125,0.20559724526032805,-2.966935496893525,0.525388659651205
1700007854812595700,4.849595703125,0.22545929907187817,-3.316682416021824,0.6116765847243368
1700007854822541600,4.85954150390625,0.3846490134224295,-3.570957036820054,0.6990376919869333
1700007854832488400,4.869488525390625,0.5085118321955203,-3.3846436070919035,0.7477304842896759
1700007854842434300,4.879434326171875,0.21922712668403982,-2.6446961778938767,0.7061917284600436
1700007854852380400,4.88938037109375,-0.566800501165539,-1.6592647525966167,0.6024160774912685
1700007854862327600,4.89932763671875,-1.3231973992526531,-0.7029834339380264,0.5952903172645717
1700007854872273400,4.9092734375,-1.9018902905248105,0.2730740138143301,0.5341290520003065
1700007854882220500,4.919220458984375,-2.17536134083271,1.2275684490561485,0.3721672060552984
1700007854892166700,4.929166748046875,-2.1490483573161066,2.036183756288886,0.16307093969807027
1700007854902112500,4.939112548828125,-2.002701757925749,2.616293674752116,-0.07228022331297397
1700007854912059600,4.9490595703125,-1.7998459203280508,2.9794729069054124,-0.267825847495161
1700007854922005500,4.959005615234375,-1.6831858725406228,3.0208319222539664,-0.38123854739181695
1700007854931951600,4.96895166015625,-1.5375905299089847,2.771224124222994,-0.30262386036030947
1700007854941898500,4.9788984375,-1.37542326105237,2.2500971406042574,0.0014470204705372453
1700007854951844400,4.98884423828125,-1.291896105929464,1.668861432981491,0.3376383289877325
1700007854961790500,4.99879052734375,-1.0875813016951084,1.0875760409981012,0.6460609387546777
1700007854971737300,5.0087373046875,-0.8740941799677908,0.37435061450898643,1.0715499120876193
1700007854981683500,5.018683349609375,-0.7068800029851496,-0.3660954118609428,1.2509589692547916
1700007854991630600,5.028630615234375,-0.5462228464305401,-1.0801672260463238,1.2465844074323773
1700007855001576400,5.038576416015625,-0.46295872615799305,-1.6203963850200176,1.1803848192073405
1700007855011522600,5.0485224609375,-0.5249953494846821,-1.976978703126311,1.1543941995128988
1700007855021469700,5.0584697265625,-0.6727319419287144,-2.085377118524909,1.1714509866453706
1700007855031415600,5.06841552734375,-0.791763102761656,-1.8526549888432025,1.1618345786467195
1700007855041361700,5.078361572265625,-0.7508161753453314,-1.381850079229474,0.9930182271644472
1700007855051308300,5.088308349609375,-0.713926998887211,-0.8609183259218931,0.8809194959431886
1700007855061254400,5.09825439453125,-0.6937585094749927,-0.4072779015988111,0.8293728485792875
1700007855071200500,5.108200439453125,-0.6140180332839489,-0.052859483528137206,0.7335252871960402
1700007855081147100,5.118147216796875,-0.450736519575119,0.21816461201906204,0.7239058104574679
1700007855091093000,5.128093017578125,-0.30718714968785643,0.4192658610343933,0.7800055910810828
1700007855101040000,5.1380400390625,-0.20339023673534393,0.48968145951926706,0.7671414333328604
1700007855110986200,5.147986328125,-0.3086182054042816,0.4507908801108598,0.8133922393109649
1700007855120932000,5.15793212890625,-0.3424852575622499,0.35495851629674435,0.7446171015094966
1700007855130879200,5.167879150390625,-0.2919325896717608,0.2403127309411764,0.7115278287909924
1700007855140825000,5.1778251953125,0.0832451233111322,0.11655015767216682,0.7302589788764715
1700007855150771200,5.187771240234375,0.05356076366528868,0.045180619463324544,0.7681075018860399
1700007855160718000,5.197718017578125,-0.2743359965741634,-0.04803308628499508,0.748072941051796
1700007855170664200,5.207664306640625,-0.2788216175556183,-0.0972667805314064,0.6691734457295387
1700007855180610300,5.2176103515625,-0.10732274899110197,-0.0265823019772768,0.7875213735386729
1700007855190557200,5.22755712890625,-0.0018095336399972437,0.09413783485591411,0.8290786879383027
1700007855200503000,5.2375029296875,-0.10238251610994338,0.22265900082886217,0.805209736572951
1700007855210450200,5.2474501953125,-0.14690788653492926,0.46208442754149437,0.704984398496896
1700007855220396000,5.25739599609375,-0.23301146801710126,0.6369394746661186,0.5679382730238139
1700007855230342100,5.267342041015625,-0.43828284232392906,0.7763537905752659,0.41309298108574
1700007855240289300,5.277289306640625,-0.6124518068805337,0.8047644770234823,0.1937086545459926
1700007855250235100,5.287235107421875,-0.728130880806595,0.731421592915058,-0.025553662182437254
1700007855260181200,5.29718115234375,-0.799741534294933,0.5691752674728632,-0.15169630812155083
1700007855270128000,5.307128173828125,-0.8230220182478427,0.31273499307334424,-0.3126709879264235
1700007855280074200,5.31707421875,-0.8963536503098904,0.009058920246362685,-0.5455791782321409
1700007855290020400,5.327020263671875,-0.9411655825912952,-0.322258023700118,-0.7994063840564339
1700007855299967000,5.336967041015625,-0.8925859683394431,-0.6608101795971393,-0.9743857151478529
1700007855309913000,5.3469130859375,-0.7433622060775756,-0.976640216076374,-0.9719824533984065
1700007855319860200,5.356860107421875,-0.4825974926076829,-1.2225146727979181,-0.8534579269133508
1700007855329806000,5.36680615234375,-0.07557751129269599,-1.3958312583088874,-0.6066684377061202
1700007855339752200,5.376752197265625,0.3210137227274477,-1.49435476090312,-0.37529929353594776
1700007855349699000,5.386698974609375,0.5018225636899472,-1.6122311987429856,-0.15210458752834238
1700007855359645200,5.396645263671875,0.7032124203883111,-1.831272009074688,0.003991245610231999
1700007855369591300,5.40659130859375,0.7537209568761288,-1.9870973615586756,0.101611431272747
1700007855379538200,5.4165380859375,0.7926922003053128,-1.8605331748723983,0.18866857801955192
1700007855389484300,5.426484375,0.748765380295366,-1.398407246276736,0.18951334001431241
1700007855399430100,5.43643017578125,0.3830230196557939,-0.8734989905536175,0.27372458667755123
1700007855409377000,5.446376953125,-0.016235533877462148,-0.5301327123731374,0.5432262949630617
1700007855419323100,5.4563232421875,-0.24915347839221358,-0.10685820021927356,0.633733152905479
1700007855429270000,5.46627001953125,-0.2609140588127076,0.33959085129499433,0.5802471715094522
1700007855439216000,5.476216064453125,-0.1531494112730026,0.7316133160948753,0.49616775279864667
1700007855449162000,5.486161865234375,-0.15733444187268614,0.977305986508727,0.4410309719882905
1700007855459109000,5.496109130859375,-0.1468587866961956,1.1776385892391203,0.3977529712758958
1700007855469055200,5.50605517578125,-0.10308043524622916,1.2856336845338343,0.4938100472239777
1700007855479001000,5.5160009765625,-0.10051087701916694,1.364024499681592,0.8001961461946367
1700007855488948200,5.5259482421875,-0.2739234702505171,1.474874984407425,1.123979479765892
1700007855498894300,5.535894287109375,-0.513234769064188,1.4696815074175595,1.3594845181643962
1700007855508841000,5.545841064453125,-0.5787982513427734,1.3878595487773417,1.485578895381838
1700007855518787000,5.555787109375,-0.616832944574207,1.2714642894059418,1.6305540602885187
1700007855528733000,5.56573291015625,-0.7301845984660088,1.1263082149744033,1.811130407669395
1700007855538680000,5.57568017578125,-0.8365082534171641,0.9993629200160503,1.8315642700195311
1700007855548626200,5.585626220703125,-0.8507856389641761,0.8908581216335296,1.8202252760119735
1700007855558572000,5.595572021484375,-0.8137959247410297,0.6671329528778791,1.7569462514087557
1700007855568519200,5.605519287109375,-0.7217362113334238,0.3840788123190403,1.723079053120315
1700007855578465300,5.61546533203125,-0.49867096779122944,0.10983809281289576,1.6357234257504343
1700007855588411100,5.6254111328125,-0.3549273905061185,-0.06552490383386611,1.5017930942103266
1700007855598358300,5.635358154296875,-0.349562648602575,-0.16130699876546858,1.3626216471463442
1700007855608304000,5.64530419921875,-0.5008662858784199,-0.2198649861961603,1.2396829574808477
1700007855618251000,5.6552509765625,-0.9146097302295267,-0.20476853935122488,1.1317449992008506
1700007855628197000,5.665197021484375,-0.922663126695156,-0.15950842491090297,0.8428663902722299
1700007855638143000,5.67514306640625,-0.4589185108564794,-0.12432605237066745,0.6997188791841268
1700007855648090000,5.685090087890625,0.11015417302474378,-0.13712123653590677,0.7859625997893511
1700007855658036200,5.6950361328125,0.5357167961157858,-0.14038520676791666,0.8276216209977865
1700007855667982000,5.704982177734375,0.45942251485586166,-0.16641162842810153,0.8686421981722116
1700007855677929200,5.71492919921875,0.42050519357100125,-0.2528174077272415,0.7984690301410854
1700007855687875000,5.724875,0.37713220805153247,-0.3973030355513096,0.787800044349581
1700007855697821200,5.7348212890625,0.19578692212477325,-0.4812701895266771,0.7604965884909033
1700007855707768300,5.744768310546875,0.12167992177605629,-0.5252607224225998,0.6880860167965293
1700007855717714200,5.754714111328125,0.14559022806510327,-0.5007657481133938,0.6721719699583947
1700007855727661000,5.7646611328125,0.15938362948745488,-0.3838204536437988,0.6945366542406379
1700007855737607200,5.774607177734375,0.22386253139972687,-0.25902269210815426,0.7488380071401596
1700007855747553000,5.784552978515625,0.2951763938985765,-0.24023557405173776,0.7708041205588728
1700007855757500200,5.794500244140625,0.3152699183784425,-0.2651034733265638,0.7966522630427032
1700007855767446000,5.804446044921875,0.26327918050885196,-0.25718963146209717,0.8529973967295139
1700007855777392000,5.81439208984375,0.19499051105007528,-0.2063841578543186,0.8920343988712877
1700007855787339300,5.82433935546875,0.10936039229854941,-0.13718027324676513,0.8952030189700424
1700007855797285000,5.83428515625,0.07742825372591615,-0.07644377273321151,0.835747498177737
1700007855807232300,5.844232177734375,0.11572364372014998,-0.038754385808110234,0.763690489161387
1700007855817178000,5.85417822265625,0.14366379004716873,-0.030483401069045065,0.746733436076343
1700007855827124200,5.864124267578125,0.1213688100002706,-0.016290040543675423,0.6783101073872297
1700007855837071000,5.874071044921875,0.10496946386322378,-0.014237199667096138,0.6677844025239348
1700007855847017000,5.884016845703125,0.10251461805701255,0.02311374908387661,0.6617994828954339
1700007855856963000,5.893963134765625,0.06669380148276687,0.044607203489542,0.6860052649997175
1700007855866910200,5.90391015625,0.1456875509597361,0.07862111677229404,0.7453929081875831
1700007855876856000,5.91385595703125,0.17964359657540915,0.11735738240182399,0.8380476648788898
1700007855886802200,5.92380224609375,0.11552505240812896,0.15049801998138426,0.8472045656070113
1700007855896749000,5.9337490234375,0.11818769574612378,0.08579086227118969,0.9352933295570314
1700007855906695200,5.943695068359375,0.2217126598894596,-0.07567395740449429,1.0232661389771849
1700007855916642300,5.953642333984375,0.41061040702238677,-0.26877427079379557,1.0977648420572281
1700007855926588200,5.963588134765625,0.5435176791250705,-0.43696109220087526,0.9887041633576155
1700007855936534300,5.9735341796875,0.48928924533128737,-0.49024376957714555,0.6639131140485406
1700007855946481200,5.983481201171875,0.289664352478832,-0.30968378880918024,0.4143507625944912
1700007855956427000,5.993427001953125,0.07652896679863333,0.03304126885831356,0.3090637572146952
1700007855966373000,6.003373046875,0.0031986499108374116,0.3386398341804743,0.29080888287145645
1700007855976320000,6.013320068359375,0.03275572991520166,0.6615414164811373,0.28958065625075247
1700007855986266000,6.02326611328125,0.06198153213858604,0.9007827187985181,0.3211416234234348
1700007855996213200,6.033213134765625,0.40488282315582036,0.9453642033249139,0.32615210852921006
1700007856006159000,6.0431591796875,0.6490905157089233,0.8998866467416285,0.33818836408592756
1700007856016105200,6.053105224609375,0.5930524021446705,0.7328747143328189,0.2875892267052084
1700007856026052400,6.06305224609375,0.447842990090698,0.547707532030344,0.13626849216409026
1700007856035997200,6.0729970703125,0.34112142186313865,0.39918051986098285,-0.018418357809260485
1700007856045944300,6.0829443359375,0.17001052970290184,0.292568987879157,-0.1428327095178887
1700007856055890200,6.09289013671875,0.023038199629634618,0.22895020992755888,-0.29870741756893693
1700007856065837000,6.102837158203125,-0.008004442757368087,0.21454875960946082,-0.4019919240199029
1700007856075783000,6.112782958984375,0.036787761910259724,0.21227613850235938,-0.40375082345120605
1700007856085729300,6.122729248046875,0.10876315705776214,0.18529402355253696,-0.36781978796813636
1700007856095676200,6.13267626953125,0.18335311861783266,0.14520868140161036,-0.288641987161152
1700007856105622300,6.142622314453125,0.2387552723661065,0.1358744513452053,-0.16734722877778113
1700007856115568400,6.152568359375,0.22382146873697636,0.1189168868035078,-0.08148965794593095
1700007856125515300,6.162515380859375,0.19724691167473793,0.06628770489990711,-0.116518337761797
1700007856135461400,6.17246142578125,0.028088322626054284,0.04253507339060306,-0.12768314424622804
1700007856145408500,6.182408447265625,-0.07769435731619596,0.1442009656637907,-0.2050353735938668
1700007856155354400,6.192354248046875,-0.014514847564697266,0.2960276039004326,-0.1650107121216133
1700007856165300500,6.202300537109375,0.28295257988050576,0.457750782251358,-0.08868106728736311
1700007856175247000,6.2122470703125,0.22926322139948604,0.657142304739356,-0.04986537974607199
1700007856185193200,6.222193115234375,-0.133918641102314,0.7873731972396373,-0.20858177749644963
1700007856195139300,6.232139404296875,-0.11810162489786744,0.8278992688953876,-0.4500242796525359
1700007856205086200,6.242086181640625,0.030614626233279704,0.7153560087770223,-0.5851609913077205
1700007856215032300,6.2520322265625,0.13799042058587074,0.48217970558702944,-0.6789571000538765
1700007856224978200,6.261978271484375,0.22046046787127851,0.16027297954261302,-0.71367711577937
1700007856234925300,6.27192529296875,0.27523952128514645,-0.17061434081494808,-0.6946694868400692
1700007856244871400,6.281871337890625,0.2947510080933571,-0.48023617030382154,-0.716100689664483
1700007856254818300,6.291818359375,0.3325305575199425,-0.7597334951639175,-0.8225659450434147
1700007856264764400,6.301764404296875,0.4078232605218887,-0.9456593868792057,-0.9276872384674847
1700007856274710300,6.311710205078125,0.43869303056001663,-1.059661029112339,-0.9405060957692563
1700007856284657200,6.3216572265625,0.43270051214694977,-1.0882231067299841,-0.8291414509762078
1700007856294603300,6.331603271484375,0.4299579354405403,-1.0371458304435015,-0.6972670290526002
1700007856304549000,6.341549072265625,0.41009851197749375,-0.9265677329182624,-0.49820203510522837
1700007856314496300,6.351496337890625,0.3470680553078651,-0.8486316758006811,-0.3059090560434386
1700007856324442400,6.3614423828125,0.333744755615294,-0.7265922730624675,-0.20542804443957283
1700007856334389200,6.37138916015625,0.31970424756407734,-0.5618360106259584,-0.13441972249224782
1700007856344335400,6.38133544921875,0.30309447354674335,-0.3868085295438766,-0.04023050450896844
1700007856354281200,6.39128125,0.2692529942214489,-0.20293898583650588,0.022876031337864696
1700007856364228400,6.401228271484375,0.14873393291831016,-0.011156769308447837,0.06571306508341804
1700007856374174500,6.411174560546875,0.1389116270840168,0.1473199744671583,0.08258514329874887
1700007856384120300,6.421120361328125,0.02682838569283485,0.2740916664242744,0.06278349617123603
1700007856394067200,6.431067138671875,-0.07091434178724884,0.34254911657869813,0.029651407224312424
1700007856404013300,6.441013427734375,-0.20879004995226857,0.36516660657823086,-0.0011048194367438554
1700007856413959200,6.450959228515625,-0.34675562835782764,0.36430852844417094,-0.08389538564709946
1700007856423906300,6.46090625,-0.3454711415052414,0.368527022922039,-0.24627887280397115
1700007856433852200,6.47085205078125,-0.3811714004397392,0.3764975634098053,-0.38018122035861013
1700007856443799300,6.48079931640625,-0.3360848890006542,0.2615542564123869,-0.5007523771751672
1700007856453745400,6.490745361328125,-0.16294029905572532,-0.04630757766664028,-0.503763322494179
1700007856463691300,6.500691162109375,0.08420037820935249,-0.349765039306879,-0.4800428396888077
1700007856473638400,6.510638427734375,0.2160615022599697,-0.5136807592660189,-0.5673000116528942
1700007856483584500,6.52058447265625,0.08721300402879714,-0.36007717448472976,-0.6722589175894856
1700007856493530400,6.5305302734375,-0.044102176576852795,-0.04100713317096233,-0.728330860358104
1700007856503477200,6.540477294921875,-0.07260346391797065,0.1868646338701248,-0.6933561392191797
1700007856513423000,6.550423095703125,-0.056959320062398906,0.2703852131217718,-0.5565805743157863
1700007856523370200,6.560370361328125,-0.012240180630981921,0.13575930053293706,-0.39379546582177277
1700007856533316400,6.57031640625,0.13455883870199323,-0.13633505459427833,-0.33494412146769464
1700007856543262200,6.58026220703125,0.3753670980751514,-0.44144203700721263,-0.33946211034879087
1700007856553209300,6.590209228515625,0.5737386298656463,-0.6918254955857992,-0.30328851654781025
1700007856563155200,6.6001552734375,0.6274117678642273,-0.7895435270160436,-0.15664945528320967
1700007856573101300,6.610101318359375,0.4812243045583367,-0.7759422871649265,0.012045050784526392
1700007856583048400,6.62004833984375,0.2783724124833941,-0.6255418823391199,0.09998582109860144
1700007856592994300,6.629994384765625,0.13338190387710927,-0.35630934638381,0.13058517669751307
1700007856602941200,6.639941162109375,0.07570259897708892,-0.07401274619400501,0.153332878081128
1700007856612887300,6.64988720703125,0.08513210610151291,0.13835750033259392,0.18684561864240093
1700007856622833200,6.659833251953125,0.1262166884228587,0.3162333565831184,0.22668118728334083
1700007856632780300,6.6697802734375,0.15301131797656417,0.4566799381494522,0.218935724255722
1700007856642726100,6.67972607421875,0.10303718062639236,0.5225011945813894,0.1479051630771253
1700007856652672300,6.68967236328125,0.018427929355204105,0.5069488206624985,0.107278398392722
1700007856662619400,6.699619384765625,-0.1514668650135398,0.4896154085457325,0.06223200890147127
1700007856672565200,6.709565185546875,-0.295849616985023,0.4802139584720134,0.020838392596994524
1700007856682512400,6.719512451171875,-0.15234832402318715,0.40250411132574077,0.028509749208786524
1700007856692458500,6.72945849609375,0.14091419907808303,0.32911154285669325,0.04635565002548974
1700007856702404400,6.739404296875,-0.2341559618771076,0.25414777954816814,0.09954137439988553
1700007856712351200,6.749351318359375,-0.36384251836761833,0.12088789461553096,0.0017562919156858697
1700007856722297000,6.759297119140625,-0.21169994604960082,0.03317512437105179,0.02736996805651579
1700007856732243200,6.7692431640625,-0.1430291454054415,-0.03466331710219383,0.12419870879710651
1700007856742190300,6.7791904296875,-0.06361454016789794,-0.0490823030769825,0.2080141884752549
1700007856752136200,6.78913623046875,0.09019508857950567,-0.05168167192041874,0.29058895651046185
1700007856762083300,6.799083251953125,0.3114297556936741,-0.07649754874706267,0.3456022936042398
1700007856772029400,6.809029541015625,0.37123569735884665,-0.0982423475652933,0.38955340780522674
1700007856781975300,6.818975341796875,0.23540201641544697,-0.09498422255218028,0.43074956074226645
1700007856791922400,6.82892236328125,0.07441752760261297,-0.07291735217273235,0.4437179095173254
1700007856801868300,6.838868408203125,-0.04123568122982978,-0.03884907835423946,0.4173457796920091
1700007856811814400,6.848814453125,-0.061550154983997345,0.05805471408367156,0.3976592285778373
1700007856821761300,6.85876123046875,0.009297697438299656,0.15560031155645845,0.4180854190781712
1700007856831707100,6.86870703125,0.0815703219667077,0.21203765357136725,0.42985034688021984
1700007856841654300,6.878654296875,0.10776567045301198,0.23160160121917722,0.4165630683491006
1700007856851600400,6.888600341796875,0.15946093250736593,0.22045243069529533,0.3717072969259694
1700007856861546200,6.898546142578125,0.24145883223637937,0.18618249682486057,0.3236889698186889
1700007856871493400,6.908493408203125,0.26258038458973165,0.18644553167521952,0.2736811493946239
1700007856881439200,6.918439208984375,0.19336451728343962,0.19526129081547258,0.2083192358364351
1700007856891385300,6.92838525390625,0.2815909361384809,0.1601432156831026,0.12479498505666851
1700007856901332500,6.93833251953125,0.38969957481026646,0.12607786447405814,0.07317777494089678
1700007856911278300,6.9482783203125,0.3229867763660848,0.09917699806690215,0.026574301333911716
1700007856921225200,6.95822509765625,0.2389301905415952,0.08062602685391902,-0.03913627953147515
1700007856931171000,6.968171142578125,0.11004676712751388,0.06488660593032837,-0.009283705445565282
1700007856941117200,6.9781171875,-0.018241759133338926,0.054530047088861465,0.034084001110587264
1700007856951064300,6.988064208984375,-0.04430412888973951,0.051396425238251685,0.049035870119370516
1700007856961010200,6.99801025390625,0.04631751453876495,0.06431143639087676,0.003637497985828668
1700007856970956300,7.007956298828125,0.173898769313097,0.048936757126450535,-0.06915546062225475
1700007856980903400,7.0179033203125,0.25054244853258134,0.01453296774327755,-0.09122287899097427
1700007856990849300,7.027849365234375,0.24049597855359314,-0.06475567302703857,-0.1229411373509094
1700007857000796400,7.03779638671875,0.2259098193183541,-0.11218728628754615,-0.15654959337161853
1700007857010742300,7.0477421875,0.20323738426119087,-0.10739888296723366,-0.13528280559498815
1700007857020688400,7.0576884765625,0.14626491245627402,-0.11254852081537246,-0.1037425706830807
1700007857030635300,7.06763525390625,0.15853431918174027,-0.10428922651410102,-0.046318500919453796
1700007857040581000,7.0775810546875,0.23129604240134358,-0.10185936901867389,-0.0003611979952082038
1700007857050527200,7.08752734375,0.29111557420045137,-0.11195172396600246,0.07554832173082977
1700007857060474400,7.097474365234375,0.25414807180911303,-0.12059621819257736,0.09090942912762984
1700007857070420200,7.107420166015625,0.16076251662522553,-0.1255395198136568,0.07510645971484482
1700007857080367600,7.11736767578125,0.09662351419180631,-0.10349135413467883,0.0924756737973541
1700007857090313500,7.1273134765625,0.07026449957638979,-0.016963994282484053,0.07384349057432264
1700007857100259600,7.137259521484375,0.0936827845647931,0.07989303640425205,0.07408363773943856
1700007857110206700,7.147206787109375,0.19226707743555307,0.1385883864790201,0.07501456191400066
1700007857120152600,7.157152587890625,0.2983829348549247,0.1507628083974123,0.10822225511409342
1700007857130098700,7.1670986328125,0.41423751147836446,0.16279519149661062,0.110788123546727
1700007857140045300,7.17704541015625,0.4669242687880993,0.16077683741152285,0.12191321907527744
1700007857149991400,7.186991455078125,0.42232510247454047,0.14287877714931965,0.13587700862847268
1700007857159938600,7.1969384765625,0.39612916946634646,0.11808160502314567,0.07727967556808144
1700007857169884400,7.206884521484375,0.27363690839409827,0.09543430440723895,0.05106056261369958
1700007857179830500,7.21683056640625,0.23608050019890067,0.05448620794713497,-0.05270235673766583
1700007857189777700,7.226777587890625,0.45329088023304936,0.011736030501127242,0.012109046798292547
1700007857199723500,7.2367236328125,0.5133994581066071,-0.0503846178472042,0.15629587433887646
1700007857209669600,7.246669677734375,0.2865298538453877,-0.0819078833580017,0.15710286160651593
1700007857219616500,7.256616455078125,-0.03432166405767202,-0.08002923000454902,0.06452913426216692
1700007857229562600,7.266562744140625,-0.06870090352147817,-0.06309153920710087,-0.0310270794916898
1700007857239509500,7.276509521484375,0.03829582838565111,-0.04772971942424774,0.02120703867971897
1700007857249455400,7.286455322265625,0.0763046565234661,-0.04480827901959419,0.06461317755011842
1700007857259401500,7.2964013671875,0.1711276971645653,0.04524900852441788,0.08171245211744681
1700007857269348400,7.306348388671875,0.3083173227615654,0.06340659650564193,0.10200900662243366
1700007857279294500,7.31629443359375,0.4222328941464424,0.07517302214503288,0.10753376139327883
1700007857289240600,7.326240478515625,0.417940457649529,0.08776713078022003,0.0990068839306943
1700007857299187500,7.3361875,0.36850977952629327,0.09793430452942847,0.10733299639048054
1700007857309133600,7.346133544921875,0.31989860109239815,0.11892507010996341,0.06928619259614498
1700007857319080700,7.356080810546875,0.28535774132609365,0.10753624561131,0.054862603511475025
1700007857329026600,7.366026611328125,0.2835609210371971,0.08148819664120674,-0.006860606484487652
1700007857338972700,7.37597265625,0.2484825933933258,0.07099778228700161,-0.05248655856251716
1700007857348919300,7.385919189453125,0.24761340934336185,0.061438511303067204,-0.06155864881770685
1700007857358865400,7.395865478515625,0.2847119907684624,0.0604103372991085,-0.028611122657451776
1700007857368811500,7.4058115234375,0.29105215357542036,0.07719839049279689,-0.005144322352204471
1700007857378758400,7.41575830078125,0.3100891547396779,0.08302081303596497,0.01983918439261615
1700007857388704500,7.42570458984375,0.34015462265759705,0.06278758782446384,0.019270828186441213
1700007857398651600,7.435651611328125,0.3193066265486181,0.06337912397682667,0.03470752157010138
1700007857408597500,7.445597412109375,0.23952187282443047,0.043948447319865226,0.011529128018487244
1700007857418543600,7.455543701171875,0.10017740728110075,0.028359833043813704,-0.05153203431665897
1700007857428490500,7.465490478515625,0.11241758791208266,0.028372108003497123,-0.08917791089359671
1700007857438436600,7.4754365234375,0.14725275444984434,0.04111176258921623,-0.09300174349807203
1700007857448383500,7.485383544921875,0.1029550553008914,0.06192015734016895,-0.05565636597136035
1700007857458329300,7.495329345703125,0.027356793481111526,0.08278641975820064,-0.04141571397185325
1700007857468275500,7.505275390625,-0.011303192041814326,0.10928455058336257,-0.016058898668922482
1700007857478222600,7.51522265625,0.0034568624556064603,0.1364104579180479,0.01302212478891015
1700007857488168400,7.52516845703125,0.07572977924495936,0.1297182668030262,0.024857816272228956
1700007857498114600,7.535114501953125,0.15554828910827637,0.08366437163650989,0.032374183251708745
1700007857508061400,7.5450615234375,0.21615970193743705,0.04261106123626232,0.049726921123452485
1700007857518007600,7.555007568359375,0.21104382022842763,0.009603694647550582,0.07436904881838709
1700007857527954700,7.56495458984375,0.19303046302348373,-0.030407413223385808,0.09254439165201038
1700007857537900500,7.574900634765625,0.17829115905314682,-0.07780337064862251,0.10608710624892263
1700007857547846700,7.5848466796875,0.15027692457661032,-0.11412380730807781,0.1017922403329052
1700007857557793500,7.59479345703125,0.10417100696191191,-0.11040215643644333,0.07886491719922051
1700007857567739400,7.604739501953125,0.054478609162569046,-0.09379588955044746,0.06609667583983392
1700007857577685500,7.614685546875,0.07582520244345069,-0.06926642844974994,0.07545070657525212
1700007857587632400,7.62463232421875,0.13161240998655557,-0.04519873964190483,0.04783385565215721
1700007857597578500,7.63457861328125,0.15787439396828412,0.007047580423951149,0.032898006196413185
1700007857607525600,7.644525634765625,0.12747794053032993,0.04196399550437927,0.020690083867218344
1700007857617471500,7.654471435546875,0.0525435494467616,0.05305120670795441,0.0012184176127426325
1700007857627417600,7.66441748046875,-0.016314152071624993,0.03868482770323753,0.034427316389232875
1700007857637364500,7.674364501953125,-0.050127720476686954,0.023143559700250626,0.06823759685866534
1700007857647310600,7.684310546875,-0.036254385685920716,-0.0006014730244874954,0.056687645247858014
1700007857657256700,7.694256591796875,0.015113251849263905,0.011352584141492842,0.0036879312651231884
1700007857667203300,7.704203369140625,-0.007232873862981796,0.027173838129639624,-0.10495782822435722
1700007857677149400,7.7141494140625,-0.16922960845828056,0.0936287162899971,-0.21361860261987894
1700007857687096600,7.7240966796875,-0.4318354197502136,0.1386503457993269,-0.2797633005862124
1700007857697042400,7.73404248046875,-0.37748978931754823,0.12016951721310615,-0.36587073625959454
1700007857706988500,7.743988525390625,-0.1433566237941384,0.06313654739260673,-0.2602029696675949
1700007857716935400,7.753935302734375,-0.025419834069162605,-0.017409984484314918,-0.1494201250841841
1700007857726881500,7.763881591796875,-0.26694194080010053,-0.10458265650272369,-0.09491117558227852
1700007857736828700,7.77382861328125,-0.4473138516500592,-0.23314824613928795,-0.15787419303888453
1700007857746774500,7.7837744140625,-0.3494840304084122,-0.326737799462676,-0.2259437763868831
1700007857756720600,7.793720703125,-0.28777853873223064,-0.350635976922512,-0.20194739924957975
1700007857766667500,7.80366748046875,-0.33032004186362024,-0.33150632903873917,-0.1398220381935127
1700007857776613400,7.81361328125,-0.30779651375785466,-0.27480945930480954,-0.12301358153261244
1700007857786559500,7.8235595703125,-0.23483751440048217,-0.22022505168020723,-0.1290071411252953
1700007857796506400,7.83350634765625,-0.10159940290823578,-0.20545535257160663,-0.13862479123296215
1700007857806452500,7.843452392578125,0.022129852613061666,-0.16145371375977993,-0.14125046356143428
1700007857816399600,7.853399658203125,-0.0002653729379177093,-0.13177227672338485,-0.13565521910395473
1700007857826345500,7.863345458984375,-0.26294015781283375,-0.08788169707059859,-0.12170483702160417
1700007857836291600,7.87329150390625,-0.42921091646552084,-0.06999824985563755,-0.14456495840428396
1700007857846238700,7.88323876953125,-0.18938757647648452,-0.09559972410202026,-0.20628071574615314
1700007857856184600,7.8931845703125,0.22271555332168935,-0.11572598180770874,-0.18038171985791995
1700007857866130700,7.903130615234375,0.44456250711530443,-0.1259831719279289,-0.08233173479326068
1700007857876077300,7.913077392578125,0.3956210738137364,-0.12964753965437412,-0.0006155746150761842
1700007857886023400,7.9230234375,0.2587669637814164,-0.10770108078420161,0.07824598158327863
1700007857895970600,7.932970458984375,0.14469342535585164,-0.08065057677328587,0.1439618048793636
1700007857905916400,7.94291650390625,0.05875497130751609,-0.019768530309200286,0.13699329930730164
1700007857915862500,7.952862548828125,0.04719225154668093,0.030264205360412594,0.08718723026672377
1700007857925809400,7.962809326171875,0.1010648576401174,0.04858136781752109,0.0239838829819113
1700007857935755500,7.972755615234375,0.18459815024286508,0.11076806713938712,-0.05040306681934744
1700007857945702700,7.98270263671875,0.1561763578787446,0.18288345527946948,-0.1390524785931222
1700007857955648500,7.9926484375,0.06365662574395536,0.19920096835196016,-0.13253275796817615
1700007857965594600,8.0025947265625,-0.0017898060262203216,0.18716741620898245,-0.09783776708608492
1700007857975541500,8.01254150390625,-0.039637744513899086,0.11615268278717994,-0.07688835642924532
1700007857985487400,8.0224873046875,-0.08487623164430261,0.04498480463027954,-0.007582217023614794
1700007857995434500,8.0324345703125,-0.10475830533057451,0.0075993690878152845,0.08070767725538462
1700007858005380400,8.04238037109375,-0.059315089408308264,0.02255611520111561,0.14718420099196955
1700007858015326500,8.052326416015624,-0.025796120035648344,0.04396598297655582,0.1793417092856951
1700007858025273600,8.062273681640624,-0.06398454252406954,0.09154080410003662,0.14578465465866028
1700007858035219500,8.072219482421875,-0.10903832073733209,0.1339262398868799,0.1318803219414316
1700007858045165600,8.08216552734375,-0.06144640234857797,0.1395166072398424,0.10302823013495653
1700007858055112700,8.09211279296875,0.10436506822928786,0.0979027403473854,0.09521068825181574
1700007858065058600,8.10205859375,0.24908786581009626,0.05502689069509506,0.1106305766311474
1700007858075005400,8.11200537109375,0.24987170966416597,0.028315409380197522,0.15560093261096625
1700007858084951600,8.12195166015625,0.2401101941064,-0.04206979396641254,0.16494279798455536
1700007858094897400,8.1318974609375,0.29899112988114357,-0.16238544165194033,0.11616870234021916
1700007858104844500,8.141844482421876,0.24854718306213616,-0.22192308776974676,0.0751424991426058
1700007858114790700,8.151790771484375,0.08899725709706545,-0.2046025351345539,0.0016232355539686977
1700007858124736500,8.161736572265625,-0.016255553752183915,-0.1805424451112747,-0.05437255497220903
1700007858134683600,8.17168359375,-0.02620148596614599,-0.1356353818923235,-0.05415582521529868
1700007858144629800,8.181629638671875,0.049894642373174425,-0.08052724265456199,-0.07532108884621411
1700007858154576600,8.19157666015625,0.15779548351317643,-0.022664251750707624,-0.09401309423139319
1700007858164522800,8.201522705078125,0.28628581595644353,0.010345452925562859,-0.1316997960090637
1700007858174468600,8.211468505859376,0.2895712673678994,0.036380642414093015,-0.12876681129708886
1700007858184415500,8.22141552734375,0.1886582392886281,0.03674421502947807,-0.11378880320005118
1700007858194361600,8.231361572265625,0.10108137038350104,0.029303251373767852,-0.17228768085464835
1700007858204308500,8.24130859375,-0.010130641131103037,0.031933015355467796,-0.20562071746746077
1700007858214254600,8.251254638671876,0.07680734534859657,0.025412089154124257,-0.2364937571749091
1700007858224200700,8.26120068359375,0.30620047673806544,0.01746083788871765,-0.14142675171010197
1700007858234147600,8.271147705078125,0.3652069385886192,-0.011420388680696487,-0.028507552685122936
1700007858244093700,8.28109375,0.10043751952201127,-0.029675591817498206,0.02562679135072976
1700007858254039600,8.29103955078125,-0.1697849042534828,-0.08235562712550162,-0.009610891573317348
1700007858263986700,8.300986572265625,-0.06308277137875556,-0.12405600325763225,-0.07651439028400928
1700007858273932800,8.310932861328125,0.029695757822692393,-0.11688976489007473,-0.043718657151982185
1700007858283879400,8.32087939453125,-0.010540098714828491,-0.10445698429644107,0.01529231647690758
1700007858293825500,8.330825439453125,0.03841507085114717,-0.08749941975474357,0.08360184606062247
1700007858303771600,8.340771728515625,0.09328998585492372,-0.061034606677293775,0.14453633509799838
1700007858313718500,8.350718505859374,0.053446635766327376,-0.022404139509797093,0.1356361490773037
1700007858323664600,8.36066455078125,0.024258389074355364,0.04271569065451622,0.09616269174702465
1700007858333611800,8.37061181640625,0.047736587556451555,0.08581015149354934,0.046416444868594406
1700007858343557600,8.3805576171875,0.031903497000038625,0.11941139232218265,0.005389218757674097
1700007858353503700,8.390503662109374,-0.051230713282525535,0.13008710011541844,-0.01699227052889764
1700007858363450600,8.40045068359375,-0.10082155040353535,0.12033902856111525,-0.05851297924518585
1700007858373396700,8.410396728515625,-0.04052373356819153,0.11576339120864867,-0.08477633320009335
1700007858383342800,8.4203427734375,0.037734395110607145,0.08263327502310276,-0.098516378733702
1700007858393289500,8.43028955078125,0.030815994024276733,0.031012393379211425,-0.10197625513030216
1700007858403235600,8.440235595703125,-0.04728285243958234,-0.03547697157263756,-0.09670620577288791
1700007858413182700,8.4501826171875,-0.14580518599003553,-0.051664136263728136,-0.07693511818042024
1700007858423128600,8.460128662109375,-0.13625555961728095,-0.03348316740691662,-0.037759292089845985
1700007858433074700,8.47007470703125,-0.0523389667853713,-0.019337737676501272,-0.030766985517088324
1700007858443021600,8.480021484375,0.05291705893427133,-0.0024777882903814314,-0.050663087728712704
1700007858452967700,8.4899677734375,0.19880641607642172,0.016081950750946997,-0.039914643492829055
1700007858462914800,8.499914794921875,0.26787337643131615,0.026401684713363648,-0.010778583645820617
1700007858472860700,8.509860595703126,0.17913374735713003,-0.01495031637251377,0.008028718682099133
1700007858482806800,8.519806884765625,0.049663610096275804,-0.04482230754494667,0.01481914600720629
1700007858492753700,8.529753662109375,0.0350863648198545,-0.06423720211088657,0.01538560251723975
1700007858502699500,8.539699462890624,0.11295447126775979,-0.05266133060753345,0.008633790169470012
1700007858512645600,8.549645751953125,0.16587898285612462,-0.058355742856860154,0.023110424615629017
1700007858522592500,8.559592529296875,0.1897005879484117,-0.04565291315019131,0.02803858346650377
1700007858532538600,8.56953857421875,0.19431407309323548,-0.036548400196433066,0.04142225331049412
1700007858542485800,8.57948583984375,0.19963906750828025,-0.05206628732383251,0.07826371816936879
1700007858552431600,8.589431640625,0.12384250663742423,-0.0877203690290451,0.08280556285008787
1700007858562377700,8.599377685546875,0.054177288128435606,-0.09809738613665103,0.07972041978370398
1700007858572324600,8.60932470703125,0.08823591733574866,-0.10028525156974792,0.049096276803407814
1700007858582270700,8.619270751953126,0.15737901166677473,-0.06928045697510242,0.0069219264839775856
1700007858592217600,8.629217529296875,0.18998115845546126,-0.048562663117051125,0.01930409113522619
1700007858602163500,8.63916357421875,0.18500147034674883,-0.01657470270395279,0.0389120971204713
1700007858612109600,8.649109619140624,0.13972060537934303,0.012501169654726982,0.04215984687004238
1700007858622056700,8.659056640625,0.10723404779434204,0.024095161336660384,0.03111154290474951
1700007858632002600,8.66900244140625,0.14067556801661849,0.047723289683461186,0.027674846454337237
1700007858641949700,8.67894970703125,0.1940346716299653,0.08045125480890274,0.01951046389490366
1700007858651895600,8.6888955078125,0.18139993872344493,0.10350129100680351,0.009754848354961723
1700007858661841700,8.698841552734375,0.11156301690936088,0.11058452726602554,0.005124978330917656
1700007858671788800,8.708788818359375,0.0690717826604843,0.09623042322099208,-0.026477014971897004
1700007858681734700,8.718734619140625,0.10201923575550317,0.10387889214754104,-0.04926880209241062
1700007858691680800,8.7286806640625,0.11783990522176027,0.13256956458091734,-0.07402388864252715
1700007858701627600,8.738627685546875,0.0714358814433217,0.12352467285990715,-0.07695501019097864
1700007858711573500,8.748573486328125,0.04008402697667479,0.07944938428997993,-0.08430911754714325
1700007858721520600,8.758520751953125,0.026192133615911006,0.07723053919672966,-0.0791825135147199
1700007858731466500,8.768466552734376,0.048615854609012604,0.10066635984182357,-0.08115434331065044
1700007858741412600,8.77841259765625,0.2586671566687524,0.04684592232704162,0.003921283363271504
1700007858751359700,8.78835986328125,0.4510100758194923,-0.010070727637410163,0.10107064806008711
1700007858761305600,8.7983056640625,0.2273334223806858,-0.0452566073089838,0.07529880394916981
1700007858771252700,8.808252685546876,-0.13213994099199772,-0.08329670736789703,-0.04848923255465924
1700007858781198800,8.81819873046875,-0.05861673188060522,-0.08731704892516136,-0.10386930233528836
1700007858791144700,8.828144775390625,0.156017075663805,-0.07711714195013046,-0.10941546522034332
1700007858801091600,8.838091552734374,0.17702829951047896,-0.08416472237408161,-0.08640168764591216
1700007858811037400,8.848037353515625,0.1388672034204006,-0.0547463201880455,0.017184760893695056
1700007858820984600,8.857984619140625,0.15961305432915687,-0.04670797516107559,0.0934606662467122
1700007858830930700,8.8679306640625,0.15652517131641505,-0.01963058314323425,0.036997824464365836
1700007858840876500,8.87787646484375,0.12053411274179815,0.008875964894890785,-0.03005037994664162
1700007858850823700,8.88782373046875,0.12290581030920147,0.06202770936787128,-0.02999216521969065
1700007858860769500,8.89776953125,0.1379752230167389,0.0752677146911621,-0.024305844945274293
1700007858870715600,8.907715576171874,0.10262421591132878,0.0851455501049757,-0.03618422479284927
1700007858880662800,8.917662841796876,0.07567220383882522,0.09701309803128241,-0.027921788686420767
1700007858890608600,8.927608642578125,0.09628741410523653,0.1098018524557352,-0.012050119685288518
1700007858900555500,8.937555419921875,0.14345131634026764,0.10380933404266833,-0.0003656732409261167
1700007858910501600,8.947501708984374,0.15488529515489935,0.0713379740267992,0.02809246907820925
1700007858920447500,8.957447509765625,0.12452625111788511,0.0444026208281517,0.03718587611606344
1700007858930394600,8.96739453125,0.09787234520912169,0.03709551268517971,0.04505412527313456
1700007858940340500,8.977340576171875,0.16694836565330623,0.012420505633950233,0.03296745470343158
1700007858950287600,8.98728759765625,0.15613631812930107,-0.01272211892902851,0.018686361095681784
1700007858960233700,8.997233642578125,0.0770762254178524,-0.008738602250814437,0.005155775327980518
1700007858970179600,9.0071796875,0.07042553535699844,0.015014613780379294,0.005940221970248967
1700007858980126700,9.017126708984375,0.15099004128202795,0.014143091642856598,0.029277952535729852
1700007858990072800,9.02707275390625,0.15701923844367266,0.0006207622468471527,0.04651455321451649
1700007859000018700,9.037018798828125,0.16591069316864013,-0.02512567342817783,0.04253954863632098
1700007859009965600,9.046965576171875,0.19835282709002494,-0.0219376910418272,0.0073977455684915185
1700007859019911400,9.056911376953124,0.2045633721679449,-0.01629354767501354,-0.03296151815298944
1700007859029858600,9.066858642578126,0.18909356196597218,-0.009296820655465126,-0.029572222774568942
1700007859039804700,9.0768046875,0.15345672365650534,0.01787351034283638,-0.006848970845621079
1700007859049750500,9.08675048828125,0.09986980263665318,0.02929506806731224,0.023494930421188474
1700007859059697700,9.09669775390625,0.06253332080245018,0.02763327233493328,0.04983832734236494
1700007859069643800,9.106643798828125,0.07942395758777857,0.03137128981947899,0.08205543860252947
1700007859079590700,9.116590576171875,0.07844780603200197,0.02727203780710697,0.1309789526549168
1700007859089536000,9.126535888671874,0.07986541774496436,0.024601357293128966,0.1876831289124675
1700007859099482000,9.136482177734376,0.09818272633254528,0.026439094114303587,0.20154521165685726
1700007859109429000,9.146428955078125,0.09193944802880287,0.037485973307490345,0.1740133904024027
1700007859119375000,9.156375,0.03479892618060112,0.05859188970029354,0.1441632274692878
1700007859129322000,9.166322021484374,0.030109891581535337,0.07869827366173267,0.13537072134045883
1700007859139267800,9.176267822265626,0.0883563288450241,0.09320026174485684,0.12770334678404033
1700007859149214000,9.1862138671875,0.1682990496098995,0.09399988768994808,0.16160506839659064
1700007859159161000,9.1961611328125,0.2224957730911672,0.095728903439641,0.19359870963180437
1700007859169107000,9.20610693359375,0.21019947835877537,0.1448451087862253,0.16908937800368293
1700007859179053000,9.216052978515625,0.19597922982648014,0.23984803603887556,0.08811245535286143
1700007859189000000,9.226,0.2946080924913287,0.3469815460681915,-0.028500721085537223
1700007859198946000,9.235946044921874,0.5641815508387983,0.4111889375627041,-0.09616152270324528
1700007859208893200,9.24589306640625,0.8602946410655975,0.40684126374721524,-0.08468675522049889
1700007859218839000,9.255839111328125,1.030461676504463,0.3503939848601818,-0.019348386934679
1700007859228785200,9.26578515625,0.9821391057536005,0.25995558904409405,0.0680242646352388
1700007859238732000,9.27573193359375,0.8370081657633185,0.15691723937392235,0.12756859622215852
1700007859248678000,9.285677978515626,0.45828459686711426,0.10033610497415066,0.15691353131318464
1700007859258625000,9.295625,0.3634672553144395,0.06601882483065127,0.13518197556901723
1700007859268571000,9.30557080078125,0.8417065527126193,0.007055179208517074,0.043643436491303145
1700007859278517000,9.31551708984375,0.851606599958241,-0.03166471980810165,-0.031738241702038796
1700007859288464100,9.325464111328126,0.4312684335172176,-0.04995616330206394,-0.1470941846209578
1700007859298410000,9.335409912109375,0.15857698927968739,-0.02833469860255718,-0.27428952708393334
1700007859308357000,9.345357177734375,0.10114552166089415,-0.036844168272614476,-0.26338784678140653
1700007859318303200,9.35530322265625,0.06498129847645759,-0.0695341394752264,-0.08731781611014157
1700007859328249000,9.3652490234375,-0.005185878205299377,-0.09499532846808433,0.08970635521449148
1700007859338196000,9.375196044921875,-0.09970540585517883,-0.13389058405160903,0.1856102498948574
1700007859348141800,9.385141845703124,-0.17329758854955435,-0.1846907969623804,0.13163732523210345
1700007859358089000,9.3950888671875,-0.2805088399901986,-0.24324177013039588,0.022060166644025592
1700007859368035000,9.40503515625,-0.4317233376778662,-0.2891711621344089,-0.06609369843145832
1700007859377981000,9.41498095703125,-0.5666062937676907,-0.30017011053264137,-0.14617034777430818
1700007859387928000,9.424927978515624,-0.6500723663531244,-0.23843992280662057,-0.16302889065463094
1700007859397874200,9.434874267578126,-0.6451881014429033,-0.17042261763513086,-0.13086935480060055
1700007859407820000,9.444820068359375,-0.5026747966051102,-0.10034311923682689,-0.08578870684672146
1700007859417767200,9.45476708984375,-0.29336788317188617,-0.023445172995328903,-0.03824260036107152
1700007859427713000,9.464713134765624,-0.1539735871374607,0.009347089537978172,0.029707375195249915
1700007859437660000,9.474659912109376,-0.08938859450221061,0.0031692776858806607,0.09012523821368813
1700007859447606000,9.48460595703125,-0.07552855758443475,-0.009264087429642676,0.10254313176544383
1700007859457552000,9.4945517578125,-0.1006605146229267,-0.02925064440369606,0.09448421887448057
1700007859467499000,9.5044990234375,-0.03718742875233293,-0.08229366780519486,0.10532510890047997
1700007859477444900,9.51444482421875,-0.036988691309839485,-0.13933131380081176,0.10275007078070193
1700007859487392000,9.52439208984375,-0.08819836180433631,-0.1774585076212883,0.06718238871730864
1700007859497338000,9.534338134765624,-0.13533552216291428,-0.2264233217984438,0.05248449446959421
1700007859507284000,9.544283935546876,-0.2003448776900768,-0.22533143490850924,0.0693633494855836
1700007859517231000,9.554231201171875,-0.23315891366377473,-0.2184662253141403,0.039494810645561665
1700007859527177200,9.56417724609375,-0.19537395740970967,-0.1652531060427427,-0.012783767722081393
1700007859537123800,9.574123779296874,-0.15766308930516243,-0.11568974145054817,-0.022079620263166726
1700007859547070000,9.584070068359376,-0.10467267287373543,-0.06487608453631401,-0.010783150223083793
1700007859557015800,9.594015869140625,-0.054712125657498833,-0.027366730353236196,0.001109623476024717
1700007859566963000,9.603962890625,-0.039271687680482864,-0.015683891344070434,0.0027561485740356145
1700007859576909000,9.613908935546876,-0.04798471709862351,0.01303016196489334,-0.012407262559887021
1700007859586856000,9.62385595703125,-0.05739771147966385,0.021959318351745603,-0.018707093356456605
1700007859596802000,9.633802001953125,-0.06288169584870339,0.011522095489501952,-0.057368083526380356
1700007859606748200,9.643748046875,-0.015252221928536891,0.0061895022898912425,-0.09524427999416366
1700007859616695000,9.653695068359376,0.09638064534664154,0.02702536956965923,-0.0790323096553795
1700007859626641200,9.66364111328125,0.14108400268703697,0.03240063286721706,-0.07614858917891978
1700007859636588000,9.673588134765625,0.16104966300353407,0.024081717333197594,-0.08357826425563543
1700007859646534000,9.683533935546874,0.16502324280962347,0.02164484557509422,-0.06495181665364652
1700007859656480000,9.69347998046875,0.14805340330824254,-0.005092354702949524,-0.048960138002038
1700007859666427000,9.703427001953125,0.12616788084506989,-0.03191489517688751,-0.017881036062166095
1700007859676373000,9.713373046875,0.08775295612439513,-0.06541910537183285,-0.004084858160838484
1700007859686319000,9.723319091796874,0.04926335873231291,-0.08337444877922534,-0.03616478944001719
1700007859696266000,9.733265869140626,0.036726971633732314,-0.07361001061201095,-0.05096994345448911
1700007859706212000,9.743212158203125,0.023235914158821105,-0.05399813216924667,-0.07093313781926408
1700007859716159200,9.7531591796875,0.06599456717222929,-0.053444005417823785,-0.0602456117240712
1700007859726105000,9.76310498046875,0.08042436680197715,-0.04573416169285774,-0.02747630994124338
1700007859736051200,9.77305126953125,0.03821691793054342,-0.031578795090317725,0.007870441114157438
1700007859745997800,9.782997802734375,-0.019323124629259107,-0.024763854378461837,-0.019933511612564323
1700007859755944000,9.79294384765625,0.003251403011381626,-0.030073066702485083,-0.06857459199437871
1700007859765891000,9.80289111328125,-0.18696663293987512,0.019687866288423537,-0.10340316439457237
1700007859775837000,9.8128369140625,-0.21137144474759698,0.033769583132863046,-0.107083971799165
1700007859785783000,9.822782958984375,0.2618123228266835,-0.020755787780880927,-0.03569536356367171
1700007859795730200,9.832730224609374,0.3342123731270432,-0.0064770870596170425,0.057910117981210346
1700007859805676000,9.842676025390626,-0.033681028066575525,-0.028262217888236043,0.017268676317483186
1700007859815623200,9.852623046875,-0.14620149183124304,-0.039328970825672147,-0.07333285590475425
1700007859825569000,9.862569091796875,0.04519084859639406,-0.03060439710021019,-0.09522807777803391
1700007859835515100,9.87251513671875,0.08786752241477369,-0.01338964292705059,-0.06393511389177292
1700007859845462000,9.8824619140625,0.04171586596220731,0.016636662024259567,-0.029987215049937364
1700007859855407900,9.892407958984375,0.06761588476374746,0.029335400077700614,0.0024540786212310195
1700007859865355000,9.90235498046875,0.1333130764245987,0.016702128475904465,0.002101977247931063
1700007859875300900,9.91230078125,0.1386640820637345,-0.007443886265158653,0.000316920462064445
1700007859885247000,9.9222470703125,0.07290536947399377,-0.005582768568396568,0.027491233515739438
1700007859895194000,9.932194091796875,0.042512277036905285,0.005021043032407761,0.05473119568414986
1700007859905140000,9.942139892578124,0.03972790701538324,0.0390957465916872,0.07340933694075792
1700007859915087000,9.952087158203126,0.010600012208521366,0.08920447010695934,0.07137794071100652
1700007859925033200,9.962033203125,0.06570566722825169,0.10857903266251087,0.01754226909447461
1700007859934979000,9.97197900390625,0.13558832788020372,0.10496025764346122,-0.041689599009789524
1700007859944926000,9.981926025390624,0.1526408772289753,0.08643558991551399,-0.056637431164272126
1700007859954871800,9.991871826171876,0.13019669796973465,0.06554945375323296,-0.02771393635571003
1700007859964818000,10.00181787109375,0.07757540711164473,0.04870879358947277,0.003296045870706439
1700007859974765000,10.01176513671875,0.04484364259392023,0.047807460835576056,0.013069872920773922
1700007859984711000,10.0217109375,0.12093524088859557,0.042720951351523394,0.025007673071697354
1700007859994658000,10.031657958984376,0.16421090351343154,0.034327217015624044,0.01929039140343666
1700007860004604200,10.041604248046875,0.12639496759921312,0.0427121835231781,-0.006555376460216939
1700007860014550000,10.051550048828124,0.12778700647950172,0.02884673977792263,-0.015591609950736164
1700007860024497200,10.0614970703125,0.16484803237318993,0.0013707038313150405,0.018225355987809597
1700007860034443000,10.071443115234375,0.1247463236093521,-0.029365795215964316,0.0512689264010638
1700007860044390000,10.081389892578125,0.07045008527636527,-0.06404957058429718,0.06599880495592951
1700007860054336000,10.0913359375,0.07229600540399551,-0.07595218982398509,0.0459856887685135
1700007860064281900,10.10128173828125,0.06363134517222642,-0.08863046961128711,0.02910571950767189
1700007860074229000,10.11122900390625,0.015243161839246748,-0.09652268416583537,-0.0020754545671865343
1700007860084175400,10.12117529296875,-0.0007855974197387695,-0.08522270699441432,-0.0241810129892081
1700007860094122500,10.13112255859375,-0.012631225775182246,-0.0527115994900465,-0.051181905704736706
1700007860104068400,10.141068359375,-0.02616217686906457,-0.011831892091035842,-0.04319171066842973
1700007860114014500,10.151014404296875,-0.0050981999218463895,0.02647416542768478,-0.05762669792994857
1700007860123961300,10.16096142578125,0.02906330513805151,0.045105216139554975,-0.06085344142410904
1700007860133907200,10.1709072265625,0.03220920194834471,0.03499006483852863,-0.03336513051781803
1700007860143854300,10.180854248046876,0.010914192724227905,0.004977203890681266,-0.0041555853094905615
1700007860153800400,10.190800537109375,-0.019100129528343675,-0.016212883654236794,0.012325338163785636
1700007860163746300,10.200746337890624,-0.014717822790890931,-0.03086567838490009,0.0015887304961681365
1700007860173693400,10.210693359375,0.030171850901842115,-0.007768880435824394,0.004153320287168026
1700007860183639300,10.220639404296875,0.07077654075175524,0.005424363136291504,0.027197145939990876
1700007860193586400,10.23058642578125,0.099255616261065,0.01165244387090206,0.0018407690284773705
1700007860203532500,10.240532470703124,0.07359861243516207,-0.00011982698738574981,-0.01047697035074234
1700007860213478400,10.250478515625,0.038539866274595255,-0.010725392153859137,-0.01738225622717291
1700007860223425300,10.26042529296875,0.023023148190975187,-0.032470775493979455,-0.02109031696487218
1700007860233371100,10.27037109375,0.032104134138673544,-0.03685995036363601,0.009726115450821816
1700007860243318300,10.280318359375,0.051609775727987285,-0.02782616455852985,0.05242310140486806
1700007860253264400,10.290264404296876,0.07011807684302329,-0.012329904741048812,0.09780870538838207
1700007860263210200,10.300210205078125,0.09593290157914161,-0.009880758023262024,0.06001308160983026
1700007860273157400,10.310157470703125,0.08681085296869277,0.009611877954006195,0.04417549754139036
1700007860283103500,10.320103515625,-0.2326796057142317,0.05791910500526428,0.011352620674110948
1700007860293050400,10.33005029296875,-0.1288170801796019,0.060517304804921145,0.0008955240676179528
1700007860302996500,10.33999658203125,0.38907282121405,0.018144728499650955,0.04849317807741463
1700007860312942300,10.3499423828125,0.3540890399858355,0.004787818798422813,0.12257175604924558
1700007860322889200,10.35988916015625,0.0004994739547371864,-0.02238952646255493,0.08658292596433312
1700007860332835300,10.36983544921875,-0.03767141287699342,-0.03271452112197876,0.01619753995463252
1700007860342782200,10.3797822265625,0.0597264466881752,-0.0796995596587658,0.04133738803863525
1700007860352728300,10.389728271484374,0.05588365365490317,-0.09460194523632526,0.05647873347122222
1700007860362674400,10.39967431640625,0.006967208664119243,-0.07779343377649783,0.055160125153325495
1700007860372621300,10.409621337890625,0.04901186818927526,-0.0758779555439949,0.05053023686297237
1700007860382567400,10.4195673828125,0.08638868203386664,-0.06518471209406852,0.019662256923131644
1700007860392514600,10.4295146484375,0.0891252673909068,-0.04816460371017456,-0.03067497811838984
1700007860402460400,10.43946044921875,0.0536459577307105,-0.04595920262038707,-0.06819193108603358
1700007860412406500,10.449406494140625,0.026331395956128833,-0.020934651479125023,-0.06827562731411307
1700007860422353200,10.459353271484375,-0.05178484003394842,0.00935761093199253,-0.07203147271629423
1700007860432299300,10.46929931640625,-0.1493815831720829,0.013482581907510756,-0.09318499111048877
1700007860442246400,10.479246337890626,-0.13579174149781464,-0.005914192479848862,-0.10929171097651123
1700007860452192300,10.489192138671875,-0.07458966929912567,-0.025818331867456433,-0.0870857974525541
1700007860462138400,10.499138427734374,-0.032732933561503884,-0.03715864104926586,-0.05588127903472632
1700007860472085500,10.50908544921875,-0.03658756316304207,-0.06774024179577827,-0.044268582652322946
1700007860482031400,10.51903125,-0.029762393318116663,-0.05475099636316299,-0.051677141875773665
1700007860491978500,10.528978515625,-0.01570332669690251,-0.03624444881379604,-0.05816208344828337
1700007860501924400,10.53892431640625,0.06028159635290503,-0.042788171368837356,-0.044404191730730236
1700007860511870500,10.548870361328126,0.08831570457369088,-0.03795709795057774,-0.03395056572295725
1700007860521817300,10.5588173828125,0.01450198808312416,-0.0425467638283968,-0.025002083581127224
1700007860531763200,10.56876318359375,-0.007193126374483108,-0.0834375771433115,-0.04402531194835901
1700007860541710300,10.57871044921875,0.054431701280921695,-0.10820026247799396,-0.08118000747486949
1700007860551656400,10.588656494140626,0.061248541688919064,-0.11130874988734721,-0.08837430289313197
1700007860561602300,10.598602294921875,0.027737901753187178,-0.10489011501669883,-0.07707918455991894
1700007860571549400,10.608549560546875,0.08596081201061606,-0.07676409072875977,-0.0844056915231049
1700007860581495300,10.618495361328126,0.16301000329107046,-0.05990472586452961,-0.09100881611518562
1700007860591442400,10.6284423828125,0.19455694193840026,-0.04814180735647678,-0.05004555861856788
1700007860601388500,10.638388427734375,0.19467180048972368,-0.048510640668869016,0.0022925131176598367
1700007860611334400,10.64833447265625,0.1671688765361905,-0.0415267731308937,0.049211902539711444
1700007860621281300,10.65828125,0.09840426012873649,-0.025697920358180998,0.10334407288478686
1700007860631227400,10.668227294921875,0.04130786968320608,-0.0040402153015136714,0.12092101143384351
1700007860641174300,10.67817431640625,0.046079906390607356,0.010248422291874885,0.11409321124041452
1700007860651120400,10.688120361328124,0.08204816861152649,0.01854571051597595,0.1050154949620366
1700007860661066200,10.698066162109376,0.09925283978208899,0.029874329259991644,0.1134746409506537
1700007860671013400,10.708013427734375,0.08085267521664499,0.010721300500631331,0.11638619928210973
1700007860680959500,10.71795947265625,0.010437222862243651,0.019306758016347885,0.08108915085364132
1700007860690906400,10.72790625,-0.0034320202752947805,0.025229718324542044,0.03489458684111014
1700007860700852500,10.7378525390625,-0.007384849554300308,0.019549334600567816,-0.009518938973546028
1700007860710798300,10.74779833984375,-0.005782967315614223,0.009663315880298614,-0.03180920631270855
1700007860720745200,10.7577451171875,0.02045154413729906,-0.002639700853824615,-0.021340291404258457
1700007860730691300,10.76769140625,0.02882029016241431,-0.012229951497912407,-0.0027572628188878294
1700007860740638200,10.77763818359375,0.05386573796123266,-0.017620412364602087,-0.013647837205510585
1700007860750584300,10.787584228515625,0.09731149645596741,-0.01229600247144699,-0.038944300623331214
1700007860760530400,10.797530517578124,0.10716185934096574,0.0032499417066574094,-0.04916985349627211
1700007860770477300,10.807477294921876,0.09911854587793349,0.012912673065066337,-0.06581742050703615
1700007860780423400,10.81742333984375,0.12839958541989327,0.014575053319334983,-0.08485248544253408
1700007860790370600,10.82737060546875,-0.03450286584347486,0.048456280133128166,-0.03663695526272058
1700007860800316400,10.83731640625,-0.20691256564259528,0.08574819217324256,-0.018981727313064037
1700007860810262500,10.847262451171876,0.06380377912968396,0.041565351575613016,0.020835976877622304
1700007860820209200,10.857209228515625,0.35301761136204,-0.0014677344650030136,0.09757962760655209
1700007860830155300,10.8671552734375,0.14802651530131697,-0.016773440146446227,0.09935270169368013
1700007860840102400,10.877102294921874,-0.057968350974470374,-0.01875087769925594,0.023538879160769282
1700007860850048300,10.88704833984375,0.036070699682086704,-0.01839724195599556,-0.012708200001530348
1700007860859994400,10.896994384765625,0.060060793209075924,-0.0431914914727211,0.03270326907560229
1700007860869941500,10.90694140625,0.06309256212040781,-0.055145548638701435,0.08856801710063592
1700007860879887400,10.916887451171876,0.11224442330226302,-0.06200900466740131,0.141219173374027
1700007860889834500,10.92683447265625,0.2027845259271562,-0.07817161943912505,0.15216697610691188
1700007860899780400,10.9367802734375,0.23028730375021694,-0.06739420483708382,0.09734839440025389
1700007860909726500,10.9467265625,0.15586743806004524,-0.029070027139782902,0.03333225116152316
1700007860919673300,10.95667333984375,0.06783814921230077,0.0027010756522417067,0.03758044665791094
1700007860929619200,10.966619140625,-0.0005658171892166138,0.039323710128664965,0.06395363592915236
1700007860939566300,10.97656640625,-0.08246785532832145,0.06458323906958102,0.0480852183310315
1700007860949512400,10.986512451171874,-0.05715922654867172,0.062364393976330756,0.02495817137416452
1700007860959458300,10.996458251953126,0.04295534462928772,0.06033551849722862,0.030396015046536922
1700007860969405400,11.006405517578125,0.08847937070280312,0.03575520399212837,0.024540530483983455
1700007860979351300,11.016351318359375,0.10890344231128692,0.0011918401330709458,0.0490229010399431
1700007860989298400,11.02629833984375,0.1251242170110345,-0.03231470814943314,0.07233432812038809
1700007860999244500,11.03624462890625,0.04466565567851066,-0.02910685201883316,0.07825874973330646
1700007861009190400,11.0461904296875,-0.0517617514193058,-0.028663784426450727,0.05382379851564765
1700007861019137300,11.05613720703125,-0.04590279625803232,-0.021060323685407636,0.02622395352628082
1700007861029083400,11.06608349609375,-0.08874605881497263,-0.005699088424444198,-0.00002586509361863136
1700007861039030300,11.0760302734375,-0.1108921319104731,0.007077391040325165,-0.006082680914551019
1700007861048976400,11.085976318359375,-0.04174304623007774,0.01707446891963482,0.013412220085039735
1700007861058922200,11.095922119140624,0.06615823330134153,0.012636778733134268,0.03425901061762124
1700007861068869400,11.105869384765626,0.12666662414744495,0.01881985128223896,0.041440519619546826
1700007861078815500,11.1158154296875,0.14341741407066583,0.01626841323375702,0.05407784634195268
1700007861088762600,11.1257626953125,0.10735562834739684,0.006749474260210991,0.09398600529506802
1700007861098708700,11.135708740234374,0.022236235596984625,-0.01957797617316246,0.11745229414366185
1700007861108654800,11.14565478515625,-0.12909984264373778,-0.09163666568994522,0.0882624034838751
1700007861118601500,11.1556015625,-0.22379501912146804,-0.13342764271497726,0.06360642992667853
1700007861128547600,11.165547607421875,-0.18949293654710053,-0.15139526108205317,-0.0027107202634215352
1700007861138494700,11.17549462890625,-0.10900938690379261,-0.10608780036866665,-0.06301109438203274
1700007861148440600,11.185440673828126,0.01296703360080719,-0.04350245711803436,-0.08387761252839118
1700007861158386700,11.19538671875,0.07479775909185409,0.01459434254169464,-0.10769589315243065
1700007861168333600,11.20533349609375,0.03495280156806111,0.08111644071936606,-0.11143727163784205
1700007861178279700,11.21527978515625,-0.012663082218170165,0.08329670736789703,-0.14998141222875563
1700007861188226800,11.225226806640626,-0.038852439355105156,0.025661095479130744,-0.14838051637075841
1700007861198172700,11.235172607421875,-0.08994973551630973,-0.028893501529097556,-0.13244191961325705
1700007861208119600,11.24511962890625,-0.04738105211704969,-0.0814899502068758,-0.10037592552788555
1700007861218065700,11.255065673828126,0.015434885019063949,-0.12501111202538012,-0.10334456607513129
1700007861228011500,11.265011474609375,0.07401376910731196,-0.14579203424751758,-0.11501655489671975
1700007861237958700,11.274958740234375,0.10724924536347388,-0.14924889670312405,-0.11390114100072532
1700007861247904500,11.284904541015624,0.06289017141610384,-0.13855799134075641,-0.13519863444287328
1700007861257851600,11.2948515625,-0.06053922437578439,-0.11329495526850222,-0.10898878250718116
1700007861267797800,11.3047978515625,-0.1266919047191739,-0.08534662563502789,-0.06917082258816808
1700007861277743600,11.31474365234375,-0.12520473490133882,-0.06589958236515521,-0.08160247067064047
1700007861287690800,11.324690673828124,-0.027645255033671854,-0.040029228049516676,-0.11465579529292881
1700007861297636600,11.33463671875,-0.04639087203592062,-0.017085574835538863,-0.09444237076044082
1700007861307583500,11.34458349609375,-0.22612200076431035,0.021308745488524437,-0.06924304757416248
1700007861317529600,11.354529541015625,-0.07271291564181447,0.04704115263819694,-0.045112705326266586
1700007861327475500,11.364475341796876,0.2197615258216858,0.026970424512028694,0.046877048117667436
1700007861337422600,11.374422607421875,0.12169716517180204,0.06450958931148051,0.1070380502982065
1700007861347368700,11.38436865234375,-0.2184323230445385,0.07333060914874076,0.023311463613063094
1700007861357315600,11.394315673828125,-0.25729718348979946,0.10356500389277934,-0.05806925406567752
1700007861367261700,11.40426171875,-0.1586789883494377,0.12993921607732772,-0.039532128714956344
1700007861377207600,11.41420751953125,-0.17530892837196588,0.12183482007682322,0.02354023086763918
1700007861387154700,11.42415478515625,-0.17493351918831468,0.12790449537932871,0.09596950726248324
1700007861397100800,11.434100830078124,-0.11391893238574266,0.0926613325625658,0.14395718350317327
1700007861407047400,11.44404736328125,-0.01587342256680131,0.05379413402974605,0.15041154727432876
1700007861416993500,11.45399365234375,0.05462561641782522,-0.013249942195415495,0.16516933674942702
1700007861426939600,11.463939697265625,0.08123086087927221,-0.06380699400007725,0.16123871930222958
1700007861436886500,11.473886474609374,0.10984203833565115,-0.06648118164539336,0.17677381329275665
1700007861446832600,11.48383251953125,0.08181552889943122,-0.0657043520539999,0.1775275542695075
1700007861456779800,11.49377978515625,0.009684358668327332,-0.056931847533583636,0.18844353709202258
1700007861466725600,11.5037255859375,-0.03666238196492195,-0.06215922679305076,0.16343794637955725
1700007861476671700,11.513671630859376,0.009887772285938262,-0.03655541445910931,0.12220003666002302
1700007861486618600,11.52361865234375,0.059259121437370776,-0.017356208470463753,0.09675773503072559
1700007861496564700,11.533564697265625,0.070278089710325,-0.008042436680197716,0.05723948871064931
1700007861506511600,11.54351171875,0.06452756335958838,0.005325578936934471,0.03571662554740906
1700007861516457500,11.55345751953125,0.03604980302453041,0.007059270861744881,0.040871304896846414
1700007861526403600,11.563403564453125,0.11307838990837335,-0.0076017071753740305,0.059970228848792606
1700007861536350700,11.573350830078125,0.16449848828315733,-0.02878478045761585,0.07180895253941416
1700007861546296600,11.583296630859374,0.14761077410727738,-0.036082536250352855,0.04405848356559872
1700007861556243700,11.59324365234375,0.14128244786858557,-0.060714288681745526,0.03434201272595674
1700007861566189600,11.603189453125,0.15556845511347053,-0.07877601507306098,0.014181085565686225
1700007861576135700,11.6131357421875,0.09683423433303832,-0.10163958878815174,0.0019367402162402867
1700007861586082800,11.623082763671874,0.07349778240919112,-0.10475392141640186,0.029390783526748416
1700007861596028700,11.633028564453125,0.09428922602534294,-0.08906593841910362,0.03156633746754378
1700007861605975600,11.6429755859375,0.14139964450746773,-0.09288111279308796,0.034551636888645584
1700007861615921700,11.652921630859375,0.18112316760867833,-0.06715104373097419,0.003110021779313683
1700007861625868500,11.66286865234375,0.20967837709411977,-0.028208441874384878,-0.04868530311603099
1700007861635814700,11.672814697265625,0.17971505437642335,-0.0198158765822649,-0.06492112925443798
1700007861645760500,11.682760498046875,0.1112310084760189,-0.010846972706913947,-0.061566265868581826
1700007861655707600,11.692707763671875,0.09278320537656545,-0.006758242088556289,-0.04767159602884203
1700007861665653800,11.70265380859375,0.07623655972331762,-0.014151274949312209,-0.02680690451338887
1700007861675600600,11.7126005859375,0.07221417233943939,-0.003759644794464111,-0.013373751238174737
1700007861685546800,11.722546630859375,0.07734510548710823,0.041996728730201716,-0.006391381537541747
1700007861695492900,11.732492919921874,0.048924336036294695,0.06520049418509007,0.008424458267726004
1700007861705439500,11.742439453125,0.029569793355464932,0.0548334139496088,0.01062226057294756
1700007861715385600,11.752385498046875,0.01837064621001482,0.038381460842490195,0.009883936361037194
1700007861725332700,11.762332763671875,0.034234716426581144,0.03326981691718101,0.008196421665512025
1700007861735278600,11.772278564453124,0.04614259636327624,0.0011187748968601225,0.002168101286701858
1700007861745224700,11.782224609375,0.06050298401862383,-0.03566577214300632,0.002613105107843876
1700007861755171600,11.792171630859375,0.10671177748590707,-0.06082125618755817,-0.0017584610398858785
1700007861765117700,11.80211767578125,0.12461188357472419,-0.08506196347475051,0.01946118139307946
1700007861775064800,11.81206494140625,0.0803916335761547,-0.0790630153208971,0.01572133727762848
1700007861785010700,11.8220107421875,0.09150105661153793,-0.08862111726105212,-0.025990875422768293
1700007861794956800,11.831956787109375,0.08164587142094969,-0.10160217938721179,-0.03164064481277019
1700007861804903400,11.8419033203125,-0.22847177876085042,-0.06601064152419567,-0.03511113393492996
1700007861814849500,11.851849609375,-0.34496377650499344,-0.027197219005227088,-0.11355272942185402
1700007861824796700,11.861796630859375,0.16144962210655212,-0.0427905094563961,-0.08871230267584324
1700007861834742500,11.871742431640625,0.33039749101400373,-0.01731879906952381,0.00513107927814126
1700007861844689700,11.881689697265625,-0.044376025082170964,-0.021261399215459824,0.018049049572832883
1700007861854635800,11.8916357421875,-0.07911825263947247,-0.041541970700025556,-0.045856838224455715
1700007861864581600,11.90158154296875,0.1391878136768937,-0.04586918624937534,-0.04204107932858169
1700007861874528800,11.91152880859375,0.15712869016751646,-0.06885258695185184,0.04759820199906826
1700007861884474600,11.921474609375,0.09962211148589849,-0.055088850015401834,0.11183514838162809
1700007861894421500,11.93142138671875,0.06597001725286245,-0.03601706979870796,0.12963736532023176
1700007861904367600,11.94136767578125,0.0841065624460578,-0.01950607998073101,0.12666983901783824
1700007861914313500,11.9513134765625,0.12616320466995237,0.018505963027477264,0.08592473605023697
1700007861924260600,11.961260498046874,0.12997896356582642,0.02968552868962288,0.07614875357570126
1700007861934206700,11.971206787109375,0.0891933641910553,0.0618482611477375,0.06731655475730076
1700007861944153600,11.981153564453125,0.016399200006574393,0.08453414020836353,0.0391858908268623
1700007861954099700,11.991099609375,-0.05278261889964342,0.09719605338275432,-0.005569488961715251
1700007861964045600,12.001045654296876,-0.04052256452441215,0.09923661929965019,-0.044905875908862795
1700007861973992700,12.01099267578125,0.022767127603292463,0.08208616253435612,-0.07695833465922623
1700007861983938800,12.020938720703125,0.06407090563327074,0.036537878802418704,-0.10037475648410618
1700007861993885400,12.030885498046874,0.09819412450939416,0.006889759513735771,-0.11329632524168118
1700007862003831600,12.04083154296875,0.08726546486839652,-0.029719430959224698,-0.14003478589504956
1700007862013777700,12.050777587890625,0.02511485977321863,-0.05603402191102504,-0.1401197790310718
1700007862023724500,12.060724609375,-0.011475333738327025,-0.06508008267581462,-0.15618121671695262
1700007862033670700,12.070670654296874,0.0748565035417676,-0.08219020743072032,-0.16807802727036178
1700007862043617800,12.08061767578125,0.026402561496198174,-0.07322188807725906,-0.16859182201139628
1700007862053563600,12.090563720703125,-0.02489011110663414,-0.06650631608664989,-0.15272608956070616
1700007862063510800,12.1005107421875,0.027493863864243028,-0.059631754142045974,-0.12442993287025018
1700007862073456600,12.11045654296875,0.058148529846966265,-0.05440788201391697,-0.07167160816164687
1700007862083402200,12.12040234375,0.013268500765413044,-0.03618365853726864,-0.033178065246809274
1700007862093349000,12.13034912109375,0.008919511775672436,-0.021832477101683616,-0.043535720066819335
1700007862103295200,12.140295166015624,0.011548106713593005,-0.00010813654959201812,-0.044276601561997087
1700007862113242000,12.1502421875,0.04080532698854804,0.023403671941161153,-0.03742514649834484
1700007862123188200,12.160188232421875,0.06547112782001495,0.047908583122491834,-0.0374245437101461
1700007862133134300,12.17013427734375,0.03041179713755846,0.05540566087961197,-0.009874584010802209
1700007862143081200,12.180081298828124,-0.001530278307199478,0.05080488908588886,0.010857147041056305
1700007862153027300,12.19002734375,0.0034087855301797388,0.04462766175568104,0.01068018303895369
1700007862162974500,12.199974365234375,0.032492110542953014,0.037171500530838966,-0.0055701465488411485
1700007862172920300,12.20992041015625,0.06166793614476919,0.030611995884776113,-0.00928348624985665
1700007862182866400,12.219866455078124,0.04482800663337111,0.034394437032938,-0.014353811784088611
1700007862192813000,12.22981298828125,0.008379559680074453,0.02007774238884449,-0.032231139785517005
1700007862202759200,12.23975927734375,-0.04266279142349958,0.009312018224596976,-0.03696858010357246
1700007862212706300,12.249706298828125,-0.07459288416951894,-0.01047346321940422,-0.019818214669823645
1700007862222652200,12.259652099609376,-0.06367986048907041,-0.011105915904045104,-0.029209526942018418
