time,seconds_elapsed,z,y,x
1700007849998560300,0.035560302734375,-8.688193667569756,-4.547709481099248,-0.06336078460253775
1700007850008506000,0.045506103515625,-8.681984876057506,-4.559658277568221,-0.05510647243706043
1700007850018452200,0.0554521484375,-8.677119315847754,-4.568997768321633,-0.04741700021326541
1700007850028399000,0.065399169921875,-8.674421162804961,-4.574162019217014,-0.043004522099834866
1700007850038345200,0.07534521484375,-8.674300166773795,-4.574391736319661,-0.04293711028627585
1700007850048291300,0.085291259765625,-8.676358852869273,-4.570452643305063,-0.04626683009772096
1700007850058238000,0.095238037109375,-8.679233531522751,-4.564954045888781,-0.049829326618579216
1700007850068183600,0.10518359375,-8.681912395343184,-4.559834803178906,-0.051919398799585174
1700007850078129700,0.115129638671875,-8.683941270822286,-4.555962053398788,-0.05254355857991613
1700007850088076800,0.125076904296875,-8.685037249365449,-4.553877063818276,-0.05215218920873012
1700007850098022700,0.135022705078125,-8.685609496295452,-4.5527907298862935,-0.05163255381537601
1700007850107968800,0.14496875,-8.685945596382021,-4.5521661682471635,-0.050099019538587884
1700007850117916000,0.154916015625,-8.686193433663249,-4.551728653612733,-0.04679336558931973
1700007850127861800,0.16486181640625,-8.68631852134764,-4.551540437564253,-0.04164887427375652
1700007850137808000,0.174807861328125,-8.6863208594352,-4.5515912909686564,-0.03514130074433051
1700007850147754800,0.184754638671875,-8.686491539826989,-4.55131335081011,-0.028311109947704242
1700007850157700900,0.194700927734375,-8.687245573064684,-4.549908452448249,-0.02203306400796864
1700007850167646700,0.204646728515625,-8.6885993257612,-4.547343862657248,-0.01699898910569609
1700007850177593600,0.214593505859375,-8.690414266228675,-4.543885538896918,-0.01382465165220783
1700007850187539700,0.224539794921875,-8.6921584795475,-4.540551426038146,-0.012638764052599435
1700007850197485600,0.234485595703125,-8.69353912025094,-4.537908218052983,-0.012103369401110103
1700007850207432700,0.2444326171875,-8.694240546518564,-4.536567032577097,-0.011156554679316468
1700007850217378800,0.25437890625,-8.693788711097836,-4.537437385670841,-0.00910493307886645
1700007850227325700,0.26432568359375,-8.692361893165112,-4.540175286202133,-0.006076413287257309
1700007850237271800,0.274271728515625,-8.690453429195284,-4.543830886100232,-0.0023361865782550013
1700007850247217700,0.2842177734375,-8.688522753393649,-4.547522141833603,0.0015308870890308752
1700007850257164800,0.294164794921875,-8.686401523455977,-4.551569371397793,0.005498365662485594
1700007850267111000,0.30411083984375,-8.684575477072595,-4.555047861163318,0.0085286321698979
1700007850277056800,0.314056884765625,-8.683221139854192,-4.557624433653056,0.01082804995237966
1700007850287003600,0.324003662109375,-8.682224530032277,-4.5595165310099715,0.013177113279578042
1700007850296949800,0.33394970703125,-8.681752820867299,-4.560402958455682,0.016823707887314958
1700007850306895600,0.3438955078125,-8.681504399064183,-4.560860931356251,0.020487040142365732
1700007850316842800,0.3538427734375,-8.681351254329085,-4.561144132211804,0.02212539106707554
1700007850326788600,0.36378857421875,-8.6813220282346,-4.5612011230960485,0.021844067074777557
1700007850336734700,0.373734619140625,-8.68145529922545,-4.560950363205373,0.02118551640107762
1700007850346681900,0.383681884765625,-8.68163767005503,-4.560602864941955,0.0213750841564266
1700007850356627700,0.393627685546875,-8.681917071518301,-4.560066858369112,0.022226289591705424
1700007850366573800,0.40357373046875,-8.68231337735951,-4.559301719215512,0.02407501588106388
1700007850376520700,0.413520751953125,-8.682732479554414,-4.5584880647450685,0.026966083980340044
1700007850386466800,0.423466796875,-8.683228738638759,-4.557520681017637,0.03040369374620495
1700007850396413000,0.433412841796875,-8.683838394969701,-4.556331763494015,0.03434430971432011
1700007850406359600,0.443359619140625,-8.684394859808682,-4.555234323646128,0.03891792407305911
1700007850416305700,0.4533056640625,-8.684466756001115,-4.555056336730718,0.043351997530367226
1700007850426252800,0.463252685546875,-8.684078048944473,-4.555761562390625,0.04698506136967335
1700007850436198700,0.47319873046875,-8.68343273677826,-4.556961585830152,0.04976478261554148
1700007850446144800,0.483144775390625,-8.682568813425302,-4.5585862644225355,0.05168602386855054
1700007850456091600,0.493091552734375,-8.681638839098811,-4.560336615221202,0.05351955943864304
1700007850466037800,0.503037841796875,-8.680662687543034,-4.562154478298128,0.056757513879984615
1700007850475984000,0.51298388671875,-8.679815715324878,-4.563694693477451,0.062232602556515484
1700007850485930800,0.5229306640625,-8.679715177559853,-4.563769512279332,0.07023992225755937
1700007850495876900,0.532876953125,-8.680717048078774,-4.561703811921179,0.07998645944190211
1700007850505822700,0.54282275390625,-8.682490487492084,-4.55815021109283,0.08949520581499673
1700007850515769600,0.55276953125,-8.684991656658053,-4.553225321911275,0.09719880246226675
1700007850525715700,0.5627158203125,-8.68764538603723,-4.548053472231328,0.10204092699750326
1700007850535661800,0.572661865234375,-8.689949571326375,-4.543602922563254,0.1040806526641827
1700007850545608700,0.582608642578125,-8.691434256926179,-4.540732920084894,0.1053644910627976
1700007850555554800,0.592554931640625,-8.691808935457468,-4.539970703540742,0.10727622470194473
1700007850565500700,0.602500732421875,-8.690869024258852,-4.541701765117049,0.11011112846746109
1700007850575447800,0.61244775390625,-8.689086232495308,-4.545021849450468,0.11374323789211921
1700007850585393700,0.6223935546875,-8.687545432794094,-4.547848889569938,0.11836428528889081
1700007850595339800,0.63233984375,-8.686790815034508,-4.549157926341891,0.12331216262038797
1700007850605287000,0.642286865234375,-8.687305194297432,-4.5480493805781,0.12789938081279395
1700007850615232800,0.652232666015625,-8.689014336302876,-4.5446708440557115,0.13180981398848815
1700007850625179600,0.6621796875,-8.69182354850471,-4.539207902474701,0.13483347265860066
1700007850635125800,0.672125732421875,-8.695427125954627,-4.532232218243181,0.13715568679478018
1700007850645072000,0.68207177734375,-8.699371479666233,-4.524566213659942,0.14008617815556934
1700007850655018800,0.692018798828125,-8.703390067657828,-4.516700010329485,0.14424645790648646
1700007850664964600,0.701964599609375,-8.707223946732283,-4.509150325602293,0.14897733148643746
1700007850674910700,0.71191064453125,-8.710356399539112,-4.502934227566421,0.15382396780000998
1700007850684857900,0.72185791015625,-8.71252614479363,-4.498582754358649,0.1582040825803764
1700007850694803700,0.7318037109375,-8.713315833866595,-4.496935279412567,0.16149797302661462
1700007850704749800,0.741749755859375,-8.712584012460708,-4.498256006622314,0.16418301085950807
1700007850714696700,0.75169677734375,-8.710562151244282,-4.50208696308732,0.1664664090889506
1700007850724642800,0.761642822265625,-8.707312209537625,-4.508294001033902,0.16845592067204415
1700007850734589000,0.7715888671875,-8.702875103873014,-4.516785350525379,0.17029327390072865
1700007850744535800,0.781535888671875,-8.696668065926431,-4.528688554286957,0.17123820833433417
1700007850754482000,0.79148193359375,-8.688343889695405,-4.544725496852398,0.16893391344733535
1700007850764427800,0.801427734375,-8.677485811072588,-4.565694050601125,0.16144713788852094
1700007850774374700,0.811374755859375,-8.665030234125256,-4.5897278371393675,0.14843042906024492
1700007850784320800,0.82132080078125,-8.652922447702288,-4.613033601664006,0.13127865712069905
1700007850794266600,0.8312666015625,-8.642950504264235,-4.632174063202738,0.11294562124102375
1700007850804213800,0.8412138671875,-8.636077111363411,-4.645410561394691,0.0933750977219548
1700007850814159600,0.85115966796875,-8.632786253124475,-4.651919504897296,0.07092975855208933
1700007850824106800,0.861106689453125,-8.632091256597638,-4.653539507314562,0.044258910641679534
1700007850834052900,0.871052978515625,-8.631887842980026,-4.6541059090256685,0.013914113184082089
1700007850843998700,0.880998779296875,-8.629994576579332,-4.6576013499259945,-0.01830688195004477
1700007850853945900,0.89094580078125,-8.624596516928076,-4.667352636350691,-0.050381923566618934
1700007850863891700,0.9008916015625,-8.615425368478894,-4.683811895981431,-0.08206412423248402
1700007850873837800,0.910837890625,-8.604332896578311,-4.703483687917888,-0.11437351688598282
1700007850883784700,0.92078466796875,-8.593879891625047,-4.721619356328249,-0.14805052636456675
1700007850893730600,0.93073046875,-8.585919288009405,-4.734825167120992,-0.1838577071391046
1700007850903676700,0.9406767578125,-8.581382229101658,-4.741427926386892,-0.22162790421545503
1700007850913623800,0.950623779296875,-8.580905843761563,-4.740469018226862,-0.257664391100686
1700007850923569700,0.960569580078125,-8.584760181102157,-4.731881807145476,-0.2856059621998109
1700007850933515800,0.970515869140625,-8.591701963064073,-4.718476382127404,-0.29836952738407996
1700007850943463000,0.980462890625,-8.598622117716074,-4.706029573008418,-0.2955846641722135
1700007850953408800,0.99040869140625,-8.602259012913704,-4.700237837864458,-0.28158114539682866
1700007850963355000,1.00035498046875,-8.601747556260227,-4.702364328499138,-0.2609415313415229
1700007850973301800,1.0103017578125,-8.59786340830326,-4.710550557564199,-0.2405034494739957
1700007850983248000,1.020247802734375,-8.591749893859028,-4.722410506705939,-0.22595780491223558
1700007850993194000,1.030194091796875,-8.584429341712594,-4.736026359604299,-0.21909769161809234
1700007851003140600,1.040140625,-8.575978908753395,-4.751339664070308,-0.21850405484018845
1700007851013086700,1.050086669921875,-8.56535989958346,-4.770241348417103,-0.2231524286353029
1700007851023033900,1.060033935546875,-8.551942784127592,-4.793775661000609,-0.23317591959750278
1700007851032979700,1.069979736328125,-8.53697200948894,-4.8197561976924534,-0.24585158730261025
1700007851042925800,1.07992578125,-8.52266642076075,-4.844403732214868,-0.25748081469470635
1700007851052872700,1.089872802734375,-8.510641051924228,-4.864996438388526,-0.2668134738485329
1700007851062818800,1.09981884765625,-8.501410866764187,-4.880755440795421,-0.273167555582989
1700007851072765700,1.109765625,-8.494259241443872,-4.892913203839957,-0.27810139525597916
1700007851082712600,1.119712646484375,-8.487694476100803,-4.904025841745734,-0.2827789220803417
1700007851092658400,1.129658447265625,-8.48103969438672,-4.9153018535196775,-0.2866416984557174
1700007851102604500,1.1396044921875,-8.474677758139372,-4.926119015610218,-0.2890955944138579
1700007851112551700,1.1495517578125,-8.469090313395858,-4.935635616496205,-0.2905085116853937
1700007851122497500,1.15949755859375,-8.465223116573691,-4.94219044496715,-0.29178390191607173
1700007851132443600,1.169443603515625,-8.463926062500477,-4.944381233009696,-0.2922894402854144
1700007851142390800,1.179390869140625,-8.465302027028798,-4.9420145038783545,-0.2924796838941984
1700007851152336600,1.189336669921875,-8.468055709651113,-4.9371296544462435,-0.2952553774189204
1700007851162282800,1.19928271484375,-8.470739834168553,-4.932034961655735,-0.30328771283021194
1700007851172229600,1.209229736328125,-8.472644206485151,-4.927988316613435,-0.31562534421999006
1700007851182175700,1.21917578125,-8.4744948027879,-4.923769822135568,-0.3313882190844044
1700007851192121900,1.229121826171875,-8.477867494091392,-4.916594231417775,-0.3510624221736565
1700007851202068500,1.239068359375,-8.484222416076063,-4.9038574994415045,-0.37488114118911325
1700007851212014600,1.2490146484375,-8.49407687061429,-4.884727267035841,-0.4005971086606383
1700007851221961700,1.258961669921875,-8.50623609496355,-4.861522624798119,-0.42417902324553575
1700007851231907600,1.268907470703125,-8.518541449785232,-4.838225628101825,-0.4431789438024163
1700007851241853700,1.278853759765625,-8.5287846113801,-4.818920039129257,-0.4563202014589682
1700007851251800600,1.288800537109375,-8.5359654627949,-4.805540917596221,-0.46309375071451064
1700007851261746700,1.29874658203125,-8.540050101760029,-4.798180910222232,-0.4641038410725072
1700007851271692500,1.308692626953125,-8.541538294491172,-4.795888123109936,-0.46039548807386305
1700007851281639700,1.3186396484375,-8.540697167491912,-4.798059914191067,-0.45331926607731726
1700007851291585800,1.328585693359375,-8.537765205693244,-4.804188333943486,-0.44353634240534157
1700007851301531600,1.33853173828125,-8.53328075375557,-4.813308628988266,-0.4307769236732274
1700007851311478500,1.348478515625,-8.527937639161944,-4.824145080301165,-0.41507940566260365
1700007851321424600,1.358424560546875,-8.522903736647963,-4.83449667070657,-0.39766408741604536
1700007851331370500,1.36837060546875,-8.519408295747636,-4.84196539915204,-0.38137159918695684
1700007851341317600,1.378317626953125,-8.517877432918548,-4.845489773885905,-0.37064905657730995
1700007851351263500,1.388263427734375,-8.518034084784984,-4.845478667970001,-0.3671754987152293
1700007851361209600,1.398209716796875,-8.520085756617783,-4.8417634468391535,-0.3685796664247289
1700007851371156700,1.40815673828125,-8.523765906435251,-4.835008419620991,-0.37213746850416063
1700007851381102600,1.4181025390625,-8.527630180647968,-4.827992987900972,-0.374678312093392
1700007851391049700,1.4280498046875,-8.529353351178765,-4.824835400652885,-0.37614031093735245
1700007851400995800,1.437995849609375,-8.527720197018981,-4.827668285991251,-0.3768184293946251
1700007851410941700,1.447941650390625,-8.523110657396913,-4.835908875592053,-0.3754353044731542
1700007851420888600,1.457888671875,-8.516914725366235,-4.847091363863647,-0.3718266124567017
1700007851430834400,1.46783447265625,-8.510493752408028,-4.85879699922651,-0.3660217255702242
1700007851440780500,1.477780517578125,-8.504341074997186,-4.870148122063279,-0.3580863294610753
1700007851450727700,1.487727783203125,-8.498625035437941,-4.880831136380135,-0.34821390087474136
1700007851460673500,1.497673583984375,-8.493529173603653,-4.890618078640103,-0.33497217851839955
1700007851470619600,1.50761962890625,-8.488902098324894,-4.899854693540931,-0.31677436812464144
1700007851480566800,1.51756689453125,-8.48357593486607,-4.9105824237823485,-0.29240755023974924
1700007851490512600,1.5275126953125,-8.476887250882386,-4.923770406657457,-0.26314945318195965
1700007851500458800,1.537458740234375,-8.468332188504935,-4.940066876941919,-0.2312513082104735
1700007851510405600,1.547405517578125,-8.457021105417608,-4.96080337550044,-0.19902621457325292
1700007851520351700,1.557351806640625,-8.444861296546458,-4.98254934336245,-0.1700069129737094
1700007851530297600,1.567297607421875,-8.432654141402244,-5.00397850036025,-0.1446654139709193
1700007851540244500,1.577244384765625,-8.419564358204603,-5.026505973988771,-0.12471373651400208
1700007851550190600,1.587190673828125,-8.402850539290904,-5.054609201923013,-0.11578299095826222
1700007851560137500,1.597137451171875,-8.376677402636409,-5.097624752306938,-0.12600181269631722
1700007851570083600,1.60708349609375,-8.335801202368735,-5.163578110685944,-0.14919496542564592
1700007851580029700,1.61702978515625,-8.277908985370397,-5.255014869889616,-0.17727980831982568
1700007851589976600,1.6269765625,-8.2041054980129,-5.368581627836823,-0.20339604542162268
1700007851599922700,1.636922607421875,-8.118691652360559,-5.496049485364556,-0.22510761782368643
1700007851609868500,1.64686865234375,-8.025444044342636,-5.630465554594993,-0.24594385042963549
1700007851619815700,1.656815673828125,-7.927466485193372,-5.76656212425828,-0.2691199789589271
1700007851629761800,1.66676171875,-7.8287495058536525,-5.898773961442709,-0.29246178291132674
1700007851639707600,1.676707763671875,-7.732970918053388,-6.022683834227919,-0.31437176396232097
1700007851649654500,1.686654541015625,-7.643962262779474,-6.134087861183286,-0.3364498863881454
1700007851659600600,1.6966005859375,-7.566966701382398,-6.227457049754261,-0.36079807263780383
1700007851669546500,1.70654638671875,-7.5059145590484135,-6.299241598504781,-0.3888260799113661
1700007851679493600,1.71649365234375,-7.464310629028081,-6.3464329732686275,-0.4209929770879447
1700007851689439500,1.726439453125,-7.444020705193281,-6.367721260491013,-0.4572345398249104
1700007851699386600,1.73638671875,-7.44448832270503,-6.364237510028481,-0.4964460217507556
1700007851709332700,1.746332763671875,-7.463515094736218,-6.338396966329217,-0.5394841492926702
1700007851719278600,1.756278564453125,-7.496204481416941,-6.295564371296763,-0.5858097375400364
1700007851729225700,1.766225830078125,-7.537229734766483,-6.241925720089673,-0.6315957755506039
1700007851739171800,1.776171875,-7.580956063768268,-6.184731422227621,-0.6697630821857601
1700007851749117700,1.78611767578125,-7.618155621349811,-6.136211429208517,-0.6935372679397463
1700007851759064600,1.796064697265625,-7.640197357288002,-6.108112292927503,-0.6990968748282641
1700007851769010400,1.806010498046875,-7.641313209575414,-6.108205231907964,-0.6859690246425568
1700007851778956500,1.81595654296875,-7.618413395503163,-6.139786949607729,-0.6581636836763471
1700007851788903700,1.825903564453125,-7.5710478332161895,-6.201919872915744,-0.6211342950299382
1700007851798849500,1.835849609375,-7.500571444454788,-6.291163505989313,-0.5771231212047859
1700007851808795600,1.845795654296875,-7.40838240557909,-6.403747098118067,-0.5275229317335411
1700007851818742500,1.855742431640625,-7.294896896174549,-6.536967235562205,-0.47214894463382656
1700007851828688600,1.865688720703125,-7.157498596262932,-6.690947252440452,-0.41451567083261903
1700007851838634800,1.875634765625,-6.9933876459926365,-6.865390796154737,-0.3595988894484937
1700007851848581600,1.88558154296875,-6.8029737952083345,-7.056469832849502,-0.31012053625863045
1700007851858527700,1.89552783203125,-6.589107172644138,-7.258408117210864,-0.2637564426317811
1700007851868474600,1.905474609375,-6.358505688378214,-7.462755800801515,-0.21695134550547227
1700007851878420500,1.91542041015625,-6.1186108905881635,-7.661901239573955,-0.1681009514882229
1700007851888366600,1.92536669921875,-5.874853572151064,-7.851230802252888,-0.12110445084250532
1700007851898313500,1.9353134765625,-5.634509861549735,-8.025947902211547,-0.08279941623709164
1700007851908259600,1.945259521484375,-5.402734072807431,-8.183961704650521,-0.060237090490898114
1700007851918205700,1.955205810546875,-5.185323494026065,-8.323474804759025,-0.050831936923018656
1700007851928152600,1.965152587890625,-4.987020935818553,-8.443810326188801,-0.04551026697622146
1700007851938098700,1.9750986328125,-4.810669512656331,-8.545538177782296,-0.04026350716284942
1700007851948044500,1.98504443359375,-4.65659392644912,-8.630482067835331,-0.03589659664063947
1700007851957991700,1.99499169921875,-4.521738296757638,-8.701900121361017,-0.03453542325607268
1700007851967937800,2.004937744140625,-4.402251208850741,-8.762948756563663,-0.03596744480358902
1700007851977883600,2.014883544921875,-4.294031072628498,-8.816487454527616,-0.035026618006231726
1700007851987830500,2.02483056640625,-4.196919482658803,-8.863146329849958,-0.02984591829954879
1700007851997776400,2.0347763671875,-4.112506923003495,-8.902652995330095,-0.020951445067010355
1700007852007722500,2.044722412109375,-4.03994788274914,-8.935830457788706,-0.011328594769485062
1700007852017669600,2.054669677734375,-3.974855525113642,-8.964981733471154,-0.0026374598060327115
1700007852027615500,2.064615478515625,-3.9121266817390916,-8.992529081088303,0.008159875918496982
1700007852037561600,2.0745615234375,-3.8477117849737406,-9.020249447184801,0.024355949431005865
1700007852047508700,2.0845087890625,-3.7791391840070485,-9.049093848875165,0.04893101693883072
1700007852057454600,2.09445458984375,-3.7013363978803158,-9.080984778654575,0.07884989316002465
1700007852067401700,2.104401611328125,-3.601166004861891,-9.120871383363008,0.1082084549176041
1700007852077347300,2.114347412109375,-3.48479120375663,-9.165521256950496,0.1408953299808316
1700007852087293400,2.12429345703125,-3.3580344171077012,-9.21217779418528,0.17257267180848865
1700007852097240300,2.134240234375,-3.2235327154204247,-9.259619344317912,0.19660660447720438
1700007852107186400,2.1441865234375,-3.08024389616549,-9.307975671207904,0.20995003364235162
1700007852117132500,2.154132568359375,-2.928817655423283,-9.356657576790452,0.21298158335797487
1700007852127079400,2.164079345703125,-2.762408072821796,-9.40712870387733,0.21310341963935642
1700007852137025300,2.174025390625,-2.5797864833489057,-9.458641448971628,0.22175472719920797
1700007852146971400,2.183971435546875,-2.3812154834635555,-9.510147179803251,0.2393426072673872
1700007852156918300,2.193918212890625,-2.1629631931610405,-9.56145651127994,0.2655640948419459
1700007852166864400,2.203864501953125,-1.9205618193775413,-9.612069092664122,0.29990150445802133
1700007852176810200,2.213810302734375,-1.6520302712984383,-9.660520112100244,0.3399018169403076
1700007852186757400,2.22375732421875,-1.3588070572942494,-9.70448258794546,0.38347244392372665
1700007852196703500,2.233703369140625,-1.0438751386985181,-9.741436061811447,0.4302839890571311
1700007852206649300,2.2436494140625,-0.7113244882386177,-9.76908745432496,0.47889637306742366
1700007852216596500,2.253596435546875,-0.36219968306403605,-9.785964939367771,0.5235354695325717
1700007852226542600,2.26354248046875,0.004572043170749384,-9.790734053465723,0.5584831565340981
1700007852236489200,2.2734892578125,0.3876800516813993,-9.78182418630123,0.5796723672961815
1700007852246435300,2.283435302734375,0.7777105389464646,-9.758142281940579,0.5866848398741334
1700007852256381200,2.293381103515625,1.1643527720127254,-9.720164141201973,0.5771130016695708
1700007852266328300,2.303328369140625,1.5395843340747057,-9.670108609178662,0.5376157981375232
1700007852276274400,2.3132744140625,1.8757932878464458,-9.614857846599817,0.4541800110924989
1700007852286220300,2.32322021484375,2.122918183020502,-9.567551905545592,0.3543309955155477
1700007852296167400,2.33316748046875,2.2130979279004035,-9.548872339516878,0.3026600276522338
1700007852306113500,2.343113525390625,2.1449821307905017,-9.565328968799113,0.2718601262462325
1700007852316059400,2.353059326171875,2.014937554642558,-9.594569091808795,0.23377591305095702
1700007852326006500,2.363006591796875,1.885061320798844,-9.621772740554809,0.19593734517982228
1700007852335952400,2.372952392578125,1.7881662961892784,-9.640846274337171,0.16418688331702724
1700007852345898500,2.3828984375,1.7319336829662322,-9.651507369083166,0.1386640363979619
1700007852355845400,2.392845458984375,1.7018458570860324,-9.657126378008723,0.11849517252640798
1700007852365791200,2.402791259765625,1.6858983463697135,-9.660100425383447,0.10274951365827582
1700007852375737300,2.4127373046875,1.6785354163862765,-9.6615143838346,0.08973692388269118
1700007852385684500,2.4226845703125,1.6746376782953738,-9.6622795229882,0.07958697526291944
1700007852395630300,2.43263037109375,1.6708891394168137,-9.662965751686691,0.07497124792865943
1700007852405577500,2.442577392578125,1.6672689030930399,-9.663572485408187,0.07716733776740729
1700007852415523300,2.4525234375,1.6657405244819818,-9.663760701456665,0.08614479027539491
1700007852425469400,2.462469482421875,1.666907814695686,-9.66341817162931,0.1006444311378058
1700007852435416600,2.47241650390625,1.669790238264203,-9.662715576317906,0.11872234147894195
1700007852445362400,2.482362548828125,1.671510924576968,-9.662163787654041,0.1380005675205495
1700007852455308500,2.49230859375,1.6682235734693704,-9.662427407026291,0.1578882763631642
1700007852465255200,2.502255126953125,1.6598874145396052,-9.663536245051025,0.1767733749013394
1700007852475201300,2.512201171875,1.648928359760344,-9.665120883893966,0.19196677931472658
1700007852485147400,2.5221474609375,1.6366954856529832,-9.66705097517371,0.19931449346272273
1700007852495094300,2.53209423828125,1.6205439767971634,-9.669784784051775,0.19864704252993687
1700007852505040400,2.542040283203125,1.5972399658381937,-9.673724461588263,0.19552019747998564
1700007852514986200,2.551986328125,1.571703958043456,-9.677947047719359,0.19356566587872803
1700007852524933400,2.561933349609375,1.5489803773209452,-9.681576928654312,0.19527150168223306
1700007852534879500,2.57187939453125,1.5288304464787243,-9.684662619709968,0.20095674424441531
1700007852544825300,2.581825439453125,1.5097107354670762,-9.687515086531638,0.2078308495312929
1700007852554772500,2.5917724609375,1.4936610795505345,-9.689865449050068,0.21417152379490434
1700007852564718600,2.601718505859375,1.4821442447580395,-9.691472884246707,0.22132738689891993
1700007852574665200,2.611665283203125,1.4731259487830102,-9.69266063272655,0.22938642765404654
1700007852584611300,2.621611328125,1.4654204889722167,-9.693618664103745,0.23801859212201087
1700007852594557200,2.63155712890625,1.4583607797190545,-9.694482002934812,0.24614375691590828
1700007852604504300,2.64150439453125,1.4525323658265172,-9.695185182768105,0.2527913051716052
1700007852614450400,2.651450439453125,1.45180901998803,-9.695165893545747,0.25767445583697407
1700007852624396300,2.661396240234375,1.4550902336157858,-9.694594815659523,0.2606660023357719
1700007852634343400,2.671343505859375,1.460923177552968,-9.693709849518537,0.26091429627472534
1700007852644289500,2.68128955078125,1.4690473011672496,-9.692577630618214,0.257339634392038
1700007852654235400,2.6912353515625,1.4813137852832674,-9.690928694367408,0.24900842563202602
1700007852664182500,2.7011826171875,1.5002978872165083,-9.688350368312001,0.23528723092935977
1700007852674128400,2.71112841796875,1.5263810074999928,-9.68469710650146,0.21724576187478378
1700007852684074500,2.721074462890625,1.5471573996774852,-9.68178677201271,0.19925076231043784
1700007852694021400,2.731021484375,1.5679481126412749,-9.6788004496783,0.1810220635880716
1700007852703967200,2.74096728515625,1.5831794379122555,-9.676582189106941,0.16649775407528503
1700007852713913300,2.750913330078125,1.5646768358856438,-9.679933253100513,0.14522479228619486
1700007852723860200,2.760860107421875,1.4998605187125502,-9.690710667702556,0.10463061469714156
1700007852733806300,2.770806396484375,1.4307999880984426,-9.701548288059234,0.056440319423284376
1700007852743753500,2.78075341796875,1.3800031361885368,-9.709045950338243,0.020238239313336088
1700007852753699300,2.79069921875,1.3382352477781474,-9.714912796545027,0.00031286266572587917
1700007852763645400,2.8006455078125,1.303216541367024,-9.719669635683298,-0.004100769257667707
1700007852773592600,2.810592529296875,1.2747108701117336,-9.72345032326579,0.004453635532659246
1700007852783538400,2.820538330078125,1.2511707123093305,-9.726477562132477,0.024196836179425005
1700007852793484500,2.830484619140625,1.2303151174157858,-9.729023154962062,0.05298769475137815
1700007852803431200,2.84043115234375,1.2092172381989656,-9.731410342359542,0.088474128272105
1700007852813377300,2.850377197265625,1.1863428508289158,-9.733778240534663,0.12851735744751058
1700007852823323400,2.860323486328125,1.1624313754960893,-9.736004684412478,0.17129253233745692
1700007852833270300,2.870270263671875,1.139787655076757,-9.737790983307361,0.21610082962336016
1700007852843216400,2.88021630859375,1.120815681972727,-9.738897483244537,0.26082512015393
1700007852853162200,2.890162353515625,1.1052490603327751,-9.739446349298953,0.30333071172172205
1700007852863109400,2.900109375,1.0902679104305804,-9.739850253924727,0.34210783908460285
1700007852873055500,2.910055419921875,1.0767946078080683,-9.740146022000909,0.3747436689471826
1700007852883002400,2.92000244140625,1.0644736170258373,-9.740564539673924,0.3983800171330571
1700007852892948500,2.929948486328125,1.051901647157222,-9.741334939524531,0.4126467351555824
1700007852902894300,2.939894287109375,1.0403094090409577,-9.742282449507712,0.4196020707188174
1700007852912841200,2.94984130859375,1.0319308722741902,-9.743054018402098,0.42236156202740965
1700007852922787300,2.959787353515625,1.0262070877999068,-9.743771811282635,0.41975357148610054
1700007852932733200,2.969733154296875,1.0190469869121908,-9.744965404981373,0.4093775407591834
1700007852942680300,2.979680419921875,1.0009992890462278,-9.747531456077098,0.39243816946130244
1700007852952626400,2.98962646484375,0.968214040775597,-9.751606742691994,0.3729713620450347
1700007852962572300,2.999572265625,0.9308979441422969,-9.755807116991281,0.3577964431364089
1700007852972519400,3.00951953125,0.9061034754298627,-9.75838368948102,0.3511867426730692
1700007852982465300,3.01946533203125,0.9040849021490662,-9.758630357718467,0.3494872087461874
1700007852992411400,3.029411376953125,0.8799846993111073,-9.760851540899276,0.3489856158996001
1700007853002358500,3.039358642578125,0.8398273879025131,-9.764241767859458,0.35312410394381727
1700007853012304400,3.049304443359375,0.8005832458160818,-9.767328627958893,0.35882848959788677
1700007853022251300,3.059251220703125,0.760229608117789,-9.770378663179278,0.3635128480218351
1700007853032197400,3.069197265625,0.7198822540298104,-9.773308286890387,0.3669007368944585
1700007853042143200,3.079143310546875,0.6794811239279807,-9.776194655981659,0.3670541738905012
1700007853052090400,3.08909033203125,0.6394936891935765,-9.779023741927743,0.363481977959536
1700007853062036200,3.0990361328125,0.5991794701902196,-9.78184522908926,0.35620409591104835
1700007853071982800,3.10898291015625,0.5582791218619794,-9.784608848583698,0.34665439647305757
1700007853081930000,3.118929931640625,0.5179667660221458,-9.787207048383355,0.33570290394574404
1700007853091875800,3.128875732421875,0.47794477143101394,-9.7896415820539,0.323813436448574
1700007853101822000,3.138822021484375,0.4385282684523612,-9.79191537220478,0.3105748193647712
1700007853111769000,3.14876904296875,0.4000665089152753,-9.794027834314107,0.29554309005280954
1700007853121715000,3.15871484375,0.3638236310040578,-9.795942143502831,0.2784636526971124
1700007853131661000,3.1686611328125,0.33060558080673214,-9.797634334373473,0.25975549989473073
1700007853141607700,3.178607666015625,0.3014010223007761,-9.799092716488241,0.23941472265552727
1700007853151553800,3.1885537109375,0.27760632348172365,-9.800288063752651,0.21839330620840192
1700007853161501000,3.1985009765625,0.25874988478245214,-9.801228559473156,0.19838884825147687
1700007853171446800,3.20844677734375,0.24330016752043737,-9.801979085579514,0.18004943742994217
1700007853181393000,3.218392822265625,0.23102628554925322,-9.802591664519905,0.161901165266335
1700007853191340000,3.228340087890625,0.2212067013950087,-9.803101952129602,0.1437703465610277
1700007853201286000,3.238285888671875,0.21495456393137574,-9.803470200920104,0.12718165186434052
1700007853211232000,3.24823193359375,0.21191119591379537,-9.803706932285428,0.11325968302572145
1700007853221179000,3.258178955078125,0.21096123824520036,-9.80386942937076,0.10011714672753587
1700007853231125000,3.268125,0.21113885983442887,-9.803995101577042,0.08638147597494535
1700007853241071000,3.278071044921875,0.21125311559755353,-9.804116682130097,0.07116253982807975
1700007853251017700,3.288017822265625,0.21165135766752063,-9.804199684238434,0.05723606377770193
1700007853260963800,3.2979638671875,0.21334751232722773,-9.804229494854807,0.04464950369473081
1700007853270909700,3.30790966796875,0.21786327271861955,-9.804175718840956,0.03274524962038267
1700007853280856800,3.31785693359375,0.22614611229225992,-9.804015559843181,0.02257315538417315
1700007853290803000,3.327802978515625,0.24862629444664341,-9.803488321098685,0.013466944805317325
1700007853300748800,3.337748779296875,0.2753633303279057,-9.802783972221613,0.001367424172606843
1700007853310696000,3.347696044921875,0.29791144488565624,-9.80211703274548,-0.011887269831862068
1700007853320641800,3.357641845703125,0.31495964685287325,-9.801564659559727,-0.023045469620637596
1700007853330589000,3.3675888671875,0.32467019940838215,-9.801215115469693,-0.03384099983468186
1700007853340535000,3.37753515625,0.33430089166071264,-9.800838098850846,-0.04682670160334091
1700007853350481000,3.38748095703125,0.3499368887424469,-9.800218505647777,-0.06032240785390604
1700007853360427800,3.397427734375,0.3704888610469177,-9.799381470301746,-0.07236917567148339
1700007853370374000,3.407373779296875,0.3943189051739871,-9.798373170042037,-0.08240042524845338
1700007853380319700,3.41731982421875,0.4225642084600404,-9.797114694413542,-0.09156620340277441
1700007853390267000,3.427266845703125,0.4535247985867783,-9.79562591716051,-0.10203195823975839
1700007853400212700,3.437212646484375,0.48537079324591903,-9.793958276209235,-0.11478051765114068
1700007853410158800,3.447158935546875,0.5178328009115531,-9.792108848950265,-0.12971535332673229
1700007853420106000,3.45710595703125,0.553065515399538,-9.789947871524095,-0.14643082534139976
1700007853430051800,3.4670517578125,0.5925932236677035,-9.78736253120601,-0.16359220535950733
1700007853439998000,3.476998046875,0.6351179583273827,-9.784431153929233,-0.17871740337489173
1700007853449945000,3.486945068359375,0.6830505068473518,-9.780945065379143,-0.19224477427219971
1700007853459891000,3.496890869140625,0.7403639741096645,-9.776486332404613,-0.20633071063403038
1700007853469837800,3.506837890625,0.8061191065028309,-9.770920514971017,-0.2229076783603057
1700007853479783700,3.51678369140625,0.8743979852199554,-9.764604171431063,-0.24147382887611163
1700007853489729800,3.526729736328125,0.9404527581468224,-9.757979784855246,-0.26030378142725674
1700007853499677000,3.536677001953125,1.0058437334027142,-9.750984811401366,-0.27743661120431495
1700007853509622800,3.546622802734375,1.0747503155641258,-9.743189627480506,-0.2925006718832999
1700007853519569000,3.55656884765625,1.1473445001970977,-9.734501294112205,-0.30570597121939064
1700007853529516000,3.56651611328125,1.2205877963885665,-9.725209149631857,-0.3175467772692442
1700007853539462000,3.5764619140625,1.2902509690709412,-9.715855630353092,-0.3282448064921424
1700007853549408000,3.586407958984375,1.3535393460243939,-9.70690893830955,-0.3380474943105131
1700007853559355000,3.59635498046875,1.4096364962995052,-9.698611650085448,-0.3467404673213139
1700007853569301000,3.606301025390625,1.4594909527927635,-9.69098247038126,-0.35374472006019203
1700007853579246800,3.616246826171875,1.503986658731848,-9.683962947008013,-0.35952425330970433
1700007853589193700,3.62619384765625,1.5433923480555414,-9.67755424900949,-0.3650332625221461
1700007853599139800,3.636139892578125,1.5787370715506375,-9.671614922088384,-0.37125940702799703
1700007853609087000,3.6460869140625,1.6108271771639584,-9.665982469159363,-0.38001196473892773
1700007853619032800,3.65603271484375,1.6393839940845965,-9.660725863805412,-0.3914109453054145
1700007853628979000,3.66597900390625,1.663201215262711,-9.656090020698308,-0.4051085947357118
1700007853638925800,3.67592578125,1.6816265142694116,-9.6522649094522,-0.419874348321557
1700007853648872000,3.685871826171875,1.693739707519859,-9.649514733961224,-0.43417493208106606
1700007853658817800,3.69581787109375,1.6999701263420284,-9.647802669346332,-0.44766032700017094
1700007853668765000,3.705764892578125,1.7023136207282543,-9.646889061632752,-0.45833453695606435
1700007853678711000,3.7157109375,1.7041997267358004,-9.64618295919001,-0.466075762199983
1700007853688657000,3.725656982421875,1.7033219209879635,-9.646006433579325,-0.47293388446643947
1700007853698603800,3.735603759765625,1.6978052033931017,-9.64659329355657,-0.48073842073753476
1700007853708550000,3.7455498046875,1.6888497435212135,-9.647753569507598,-0.48887397906128316
1700007853718495700,3.755495849609375,1.6769347031913697,-9.649422964024543,-0.49687988312337544
1700007853728443000,3.76544287109375,1.6629054471865294,-9.651450085937975,-0.5046364155342802
1700007853738388700,3.775388671875,1.6469823402591048,-9.653808047240972,-0.5116719401942565
1700007853748334800,3.7853349609375,1.6292277801208197,-9.656514968112111,-0.5174412077780812
1700007853758282000,3.795281982421875,1.6088032701209187,-9.659704704064131,-0.5217990741940215
1700007853768227800,3.805227783203125,1.5850959390580652,-9.6634526584208,-0.5249454824609682
1700007853778175000,3.815175048828125,1.5582991175472736,-9.667713238474725,-0.5266776400158182
1700007853788121000,3.82512109375,1.5299224794991313,-9.672239775988459,-0.526795786502771
1700007853798067000,3.83506689453125,1.5022875997290015,-9.676660515040158,-0.525143306588009
1700007853808013800,3.845013916015625,1.4760280999653042,-9.680886608302593,-0.5217301736762747
1700007853817959700,3.854959716796875,1.4511745214767753,-9.684909287947416,-0.516739306586422
1700007853827905800,3.86490576171875,1.4284974102444945,-9.688597621071338,-0.5107605244377628
1700007853837853000,3.87485302734375,1.4083767054967582,-9.691882634091376,-0.5042753271369264
1700007853847798800,3.884798828125,1.3892862205795944,-9.695000473850964,-0.49724239629283545
1700007853857745000,3.894744873046875,1.370152627173066,-9.698114221957326,-0.48952897237129506
1700007853867692000,3.904692138671875,1.3513697469003498,-9.701178285703062,-0.48094738731309766
1700007853877638000,3.914637939453125,1.3342733584098516,-9.70401964660883,-0.4712551010666415
1700007853887584000,3.924583984375,1.3184376375049351,-9.7067587161839,-0.45929125315900887
1700007853897531000,3.93453076171875,1.3017138817191123,-9.709725749295949,-0.444028984760493
1700007853907477000,3.94447705078125,1.2829726486310362,-9.713008424228429,-0.42644181707836687
1700007853917423900,3.954423828125,1.2632738225571811,-9.716392805969715,-0.40772177290879186
1700007853927369700,3.96436962890625,1.2432089396499098,-9.719781863886118,-0.38818062161467964
1700007853937315800,3.97431591796875,1.2234963042464106,-9.723086166128516,-0.36752080502156165
1700007853947262700,3.9842626953125,1.2058353406757116,-9.726090608641504,-0.34571068588215853
1700007853957208800,3.994208740234375,1.1916633151993155,-9.72861457416117,-0.3230948763830587
1700007853967155000,4.004155029296875,1.1800495959036053,-9.730776720631122,-0.2998021540030837
1700007853977101800,4.014101806640625,1.1694998525775968,-9.732749482008813,-0.27614271720256656
1700007853987048000,4.0240478515625,1.1589851805649698,-9.734655607891082,-0.25223091307617723
1700007853996993800,4.033993896484375,1.1483362877134233,-9.736516725587844,-0.22800375939030199
1700007854006941000,4.04394091796875,1.1381198679950089,-9.738270291256905,-0.20286613979600368
1700007854016887000,4.053886962890625,1.128479713794589,-9.739907537069916,-0.17642856178535146
1700007854026833700,4.063833740234375,1.1193934671498835,-9.741419695198536,-0.14863061867430805
1700007854036779800,4.07377978515625,1.1112808878429234,-9.742741299191117,-0.12014968000147491
1700007854046726000,4.083725830078125,1.1049889480918644,-9.743756029191612,-0.09273506451905704
1700007854056672800,4.0936728515625,1.101233687211573,-9.744384974744916,-0.0681020060465671
1700007854066619000,4.103618896484375,1.1001417272564022,-9.744627551329135,-0.04790430423959624
1700007854076564500,4.113564453125,1.1028322815146296,-9.744387897354363,-0.03214956016599899
1700007854086511600,4.12351171875,1.1117759048182516,-9.743404731535911,-0.01977808358883485
1700007854096457500,4.13345751953125,1.1289788954883813,-9.741442491552233,-0.009676826099131721
1700007854106403600,4.143403564453125,1.153852493851632,-9.738532741585374,-0.0007913900516443391
1700007854116350500,4.1533505859375,1.1806503382757305,-9.735315533104538,0.007678715080229449
1700007854126296600,4.163296630859375,1.203721051935479,-9.732481186461449,0.014790689380990806
1700007854136242400,4.173242431640625,1.2249042713481932,-9.729832717779278,0.019106951994774864
1700007854146189600,4.183189453125,1.2478135108359156,-9.726915953549742,0.02146988630041014
1700007854156135700,4.1931357421875,1.2710736826531588,-9.723902743208408,0.022244891544186976
1700007854166082300,4.203082275390625,1.2895549496307968,-9.721469963103532,0.020644895301910583
1700007854176028400,4.2130283203125,1.3028382095739244,-9.719709383171796,0.0169329015995434
1700007854185974500,4.222974609375,1.3109876137599348,-9.71862041889131,0.01147949389021378
1700007854195921400,4.23292138671875,1.3142580137327313,-9.718184365561603,0.0043431808742840075
1700007854205867500,4.242867431640625,1.3132780627846716,-9.718317636552452,-0.004204677156714024
1700007854215813400,4.2528134765625,1.309058691523969,-9.718878193044661,-0.013396088650857563
1700007854225760500,4.262760498046875,1.3014897175744176,-9.719877725476026,-0.022846732178144157
1700007854235706600,4.27270654296875,1.2908587257057427,-9.721263042354582,-0.03353301616432145
1700007854245652500,4.282652587890625,1.2789423702016471,-9.722783968311548,-0.04619887486146763
1700007854255599600,4.292599609375,1.2670280605241655,-9.72426923843324,-0.060103029482183046
1700007854265545700,4.302545654296875,1.254774143628776,-9.72576327638328,-0.07401316175253596
1700007854275491600,4.31249169921875,1.2420495404817162,-9.727280110687017,-0.08797808838346972
1700007854285438500,4.3224384765625,1.2291178704552352,-9.728777071246505,-0.10291701571228913
1700007854295384300,4.33238427734375,1.2148107473570853,-9.730377492180466,-0.1199322013258934
1700007854305331500,4.34233154296875,1.1978187690891324,-9.732225165873766,-0.13933401721455155
1700007854315277600,4.352277587890625,1.1769986108351498,-9.734440503835678,-0.1604676801308058
1700007854325223400,4.362223388671875,1.1523241152405739,-9.73700830849707,-0.1822847952665761
1700007854335170600,4.372170654296875,1.1235350969992577,-9.739941439339518,-0.20393972384426742
1700007854345116700,4.38211669921875,1.0905619980063288,-9.743227621403335,-0.22494031669907272
1700007854355062500,4.3920625,1.054327997521311,-9.746713125431537,-0.24574737800946458
1700007854365009700,4.402009765625,1.016201315157488,-9.750204474678634,-0.2669464343121275
1700007854374955500,4.41195556640625,0.9775086694739759,-9.753561968412995,-0.28795223306501283
1700007854384901600,4.421901611328125,0.9379686131808906,-9.756839382648467,-0.3077688585659489
1700007854394848500,4.4318486328125,0.8985399813730269,-9.759971250933408,-0.3255205326274037
1700007854404794400,4.44179443359375,0.8604222129680216,-9.76285937359035,-0.34150439329873766
1700007854414741500,4.451741455078125,0.8246405593603849,-9.765421917554736,-0.35626923356913026
1700007854424687400,4.461687255859375,0.7907234575156122,-9.767754744416475,-0.368945686725527
1700007854434633500,4.471633544921875,0.758116926812753,-9.769940856283903,-0.3793738494984805
1700007854444580600,4.48158056640625,0.7267153149202465,-9.772005972120166,-0.38754155652616173
1700007854454526500,4.4915263671875,0.6965767817661166,-9.773941324096917,-0.39403161266520614
1700007854464472600,4.50147265625,0.6677513770371675,-9.775749250301718,-0.3990735888877883
1700007854474419700,4.511419677734375,0.6402579515643417,-9.777458392307162,-0.4022119599787518
1700007854484365600,4.521365478515625,0.6154219087325036,-9.779043031150103,-0.4024715242303908
1700007854494311700,4.531311767578125,0.5943482871741056,-9.780470433604716,-0.3994426779285073
1700007854504258300,4.54125830078125,0.5785055154738947,-9.781706112879514,-0.39236590794268994
1700007854514204400,4.551204345703125,0.568524365816079,-9.782747730886935,-0.38080446682348845
1700007854524151600,4.561151611328125,0.5644054592551663,-9.783573075795173,-0.36538675213493405
1700007854534097400,4.571097412109375,0.5641389538060874,-9.784263396146892,-0.3468963520027697
1700007854544043500,4.58104345703125,0.5657169071799144,-9.784911630922556,-0.3253651228699833
1700007854553990700,4.59099072265625,0.5678001066621393,-9.785547006216644,-0.30179663402223955
1700007854563936500,4.6009365234375,0.5690843012537807,-9.78618881125152,-0.27755831962153316
1700007854573882600,4.610882568359375,0.5683063026186078,-9.786890237519144,-0.25340015778494995
1700007854583829500,4.62082958984375,0.5647535420404747,-9.787649531453848,-0.23093754781987516
1700007854593775600,4.630775634765625,0.5588378151906654,-9.78844857287705,-0.21056105994647367
1700007854603721700,4.6407216796875,0.5512866691587492,-9.789252290475368,-0.19237433720231056
1700007854613668400,4.65066845703125,0.5448715779520571,-9.7899192299515,-0.17603539774930105
1700007854623614500,4.660614501953125,0.5430724195756018,-9.790278710913658,-0.16100841767769306
1700007854633560300,4.670560302734375,0.5466317925576121,-9.790288647785783,-0.14773240032610482
1700007854643507500,4.680507568359375,0.5547536146169528,-9.789986449968815,-0.13704793383767827
1700007854653453600,4.69045361328125,0.5664430294973776,-9.789429985129832,-0.12874558584596962
1700007854663400400,4.700400390625,0.5820022350158542,-9.788605224743485,-0.12194950509821063
1700007854673346600,4.7103466796875,0.6024122780989856,-9.787443195226787,-0.11587542761522344
1700007854683292400,4.72029248046875,0.6288764335893094,-9.78583634455204,-0.11099140930017455
1700007854693239600,4.730239501953125,0.6611239217214286,-9.783743171665073,-0.10802151751075871
1700007854703185700,4.740185546875,0.6982919881861657,-9.781166014653444,-0.10755560789890586
1700007854713131500,4.750131591796875,0.7388538618076592,-9.778167417359352,-0.10915064940485171
1700007854723078400,4.760078369140625,0.7822111383013427,-9.77475556308925,-0.11257958267391659
1700007854733024500,4.7700244140625,0.8311879351772368,-9.770652219423651,-0.1177409748919308
1700007854742970400,4.779970458984375,0.8888578146617859,-9.76549030661583,-0.12454293739120476
1700007854752917500,4.78991748046875,0.9561249590530991,-9.759023156428336,-0.13289194666938856
1700007854762863400,4.79986328125,1.0278061204943805,-9.75159329868853,-0.14291780311861074
1700007854772810500,4.809810546875,1.0982845550823956,-9.743747261363268,-0.15343882267363368
1700007854782756600,4.819756591796875,1.1657192380603403,-9.735738726952672,-0.16388168982537463
1700007854792702500,4.829702392578125,1.230033816256374,-9.727615626251698,-0.17582372775999827
1700007854802649600,4.839649658203125,1.2906285702116786,-9.719489018419385,-0.1902005550934933
1700007854812595700,4.849595703125,1.3469327873662114,-9.71151497080028,-0.2064579720092006
1700007854822541600,4.85954150390625,1.3973852097526192,-9.703991589558123,-0.2240880655176006
1700007854832488400,4.869488525390625,1.4411166533209383,-9.697124626398086,-0.2436014154893346
1700007854842434300,4.879434326171875,1.4802068469546734,-9.690679103520512,-0.2647608704339713
1700007854852380400,4.88938037109375,1.5172982679866254,-9.684311906576156,-0.2868305172923952
1700007854862327600,4.89932763671875,1.5519935876622795,-9.678125326895714,-0.3091831823432818
1700007854872273400,4.9092734375,1.5834619081154464,-9.672261987820267,-0.33226788799576457
1700007854882220500,4.919220458984375,1.6112275746583937,-9.66683002589941,-0.3560062717840075
1700007854892166700,4.929166748046875,1.6344447841167449,-9.66201648813784,-0.380045319019258
1700007854902112500,4.939112548828125,1.6519513608433305,-9.658089670082926,-0.40341771903932094
1700007854912059600,4.9490595703125,1.6632260574430227,-9.655254738917947,-0.42439770749751476
1700007854922005500,4.959005615234375,1.6689697156615555,-9.653518708905578,-0.4410201218007132
1700007854931951600,4.96895166015625,1.6695710425555705,-9.652908468052745,-0.451998392737098
1700007854941898500,4.9788984375,1.6676652089342474,-9.652968673807383,-0.4576920012688264
1700007854951844400,4.98884423828125,1.6659904075898229,-9.653225863438845,-0.45839565602615473
1700007854961790500,4.99879052734375,1.663836152165383,-9.653730305829644,-0.455572232635878
1700007854971737300,5.0087373046875,1.65984123731032,-9.654574939960241,-0.45219994319118556
1700007854981683500,5.018683349609375,1.653038425427675,-9.65588251542747,-0.44920057871211316
1700007854991630600,5.028630615234375,1.6424682238355277,-9.657827219754457,-0.4461726822583005
1700007855001576400,5.038576416015625,1.6278876175582409,-9.660484456264973,-0.4420727361261844
1700007855011522600,5.0485224609375,1.6107655101045966,-9.663629768553376,-0.4359840638622641
1700007855021469700,5.0584697265625,1.5934525562539696,-9.666861590081453,-0.42790155090000476
1700007855031415600,5.06841552734375,1.577509721712768,-9.669888828948139,-0.4184350727660581
1700007855041361700,5.078361572265625,1.5626001757420598,-9.672776951605082,-0.4074863567177206
1700007855051308300,5.088308349609375,1.5478575107708572,-9.675663320696353,-0.39504612346999346
1700007855061254400,5.09825439453125,1.532776699886471,-9.678595867016911,-0.3818066296033561
1700007855071200500,5.108200439453125,1.517679083997756,-9.681515553855895,-0.36781109320502725
1700007855081147100,5.118147216796875,1.5028383654795585,-9.684389647987484,-0.3528044435353949
1700007855091093000,5.128093017578125,1.4881269724294541,-9.687221656543016,-0.33707817435432225
1700007855101040000,5.1380400390625,1.4726159534342587,-9.690149526688456,-0.3206227871811017
1700007855110986200,5.147986328125,1.457086960390955,-9.693007838729024,-0.30477402413152155
1700007855120932000,5.15793212890625,1.4427701196163891,-9.695637602710724,-0.2888208508593961
1700007855130879200,5.167879150390625,1.4309734449692069,-9.697857616847752,-0.2724911906913854
1700007855140825000,5.1778251953125,1.4207622859477995,-9.699790046215057,-0.2566561273735948
1700007855150771200,5.187771240234375,1.4109418798096478,-9.70159388076663,-0.24228096227422355
1700007855160718000,5.197718017578125,1.4027534587875008,-9.70310194724202,-0.22912965814769268
1700007855170664200,5.207664306640625,1.3976619808673858,-9.704145903337002,-0.21562168607059864
1700007855180610300,5.2176103515625,1.3951044053390622,-9.70480173689723,-0.20228852257113902
1700007855190557200,5.22755712890625,1.3940373606294392,-9.70521265578568,-0.18952738680597395
1700007855200503000,5.2375029296875,1.3937553288176654,-9.70549322629273,-0.17673183731455355
1700007855210450200,5.2474501953125,1.3932393421195446,-9.705797762197255,-0.16359556636037303
1700007855220396000,5.25739599609375,1.3921044928707182,-9.706175363337993,-0.1502997939955443
1700007855230342100,5.267342041015625,1.39072575186342,-9.706575176310539,-0.13656293593286536
1700007855240289300,5.277289306640625,1.3901179952286182,-9.706853993251919,-0.1221819712803699
1700007855250235100,5.287235107421875,1.390426330525428,-9.706983757111429,-0.1074741766931489
1700007855260181200,5.29718115234375,1.390661016064137,-9.707095985314249,-0.09355964224231429
1700007855270128000,5.307128173828125,1.390149121019244,-9.70728303231895,-0.08087585516283288
1700007855280074200,5.31707421875,1.3891101333603262,-9.707522101771831,-0.06928164428519085
1700007855290020400,5.327020263671875,1.3887315093062818,-9.707651281109452,-0.05771775091399904
1700007855299967000,5.336967041015625,1.3896817957684398,-9.70757938491702,-0.04569369268515147
1700007855309913000,5.3469130859375,1.3927891141340136,-9.707185417163371,-0.03283401018264703
1700007855319860200,5.356860107421875,1.3983800660088657,-9.706417939922213,-0.019378024021117015
1700007855329806000,5.36680615234375,1.4060060308426618,-9.705334236338734,-0.006845506525944802
1700007855339752200,5.376752197265625,1.4167277697347103,-9.703776485502718,0.0038988794498072818
1700007855349699000,5.386698974609375,1.4337394025512038,-9.701269471117854,0.012642490379646187
1700007855359645200,5.396645263671875,1.4575542856417596,-9.697705641156434,0.020100367495894896
1700007855369591300,5.40659130859375,1.48635382527709,-9.693313543677329,0.02812405609313864
1700007855379538200,5.4165380859375,1.5181605839043855,-9.688346276658773,0.03863064069743268
1700007855389484300,5.426484375,1.5523619825832544,-9.682855278027057,0.05349806455946527
1700007855399430100,5.43643017578125,1.589499726974964,-9.676698508962989,0.07313508201006334
1700007855409377000,5.446376953125,1.6291795570649206,-9.669916301476954,0.09437966252146288
1700007855419323100,5.4563232421875,1.669364706328511,-9.662833065217733,0.11535287417899817
1700007855429270000,5.46627001953125,1.705964690581709,-9.656178283503651,0.13531995013444684
1700007855439216000,5.476216064453125,1.73481917527467,-9.650762688195705,0.1535587044599466
1700007855449162000,5.486161865234375,1.7548657918728887,-9.646861004582046,0.17008931229384616
1700007855459109000,5.496109130859375,1.7665360636614262,-9.644432900652289,0.18613301339363678
1700007855469055200,5.50605517578125,1.7707910907573996,-9.643342767328024,0.2015560070455074
1700007855479001000,5.5160009765625,1.769269726409018,-9.643324062627553,0.21539443491967394
1700007855488948200,5.5259482421875,1.763864652495086,-9.64404010194242,0.2272480639184825
1700007855498894300,5.535894287109375,1.755675500820577,-9.645282210958003,0.23774722783472388
1700007855508841000,5.545841064453125,1.7441762016847728,-9.647107088297606,0.2481224731103517
1700007855518787000,5.555787109375,1.7292387447938322,-9.649525255355238,0.25847125050416214
1700007855528733000,5.56573291015625,1.7127055431440472,-9.652211133438348,0.26808455323027447
1700007855538680000,5.57568017578125,1.6963250478379428,-9.654849665248394,0.2769787661679089
1700007855548626200,5.585626220703125,1.6812744859613478,-9.657227500295638,0.28577459676498546
1700007855558572000,5.595572021484375,1.667628384055197,-9.659305475613474,0.29533368508582936
1700007855568519200,5.605519287109375,1.654875869987905,-9.66116016356945,0.3061563636017032
1700007855578465300,5.61546533203125,1.6426501562736928,-9.662851185396313,0.31839389561787246
1700007855588411100,5.6254111328125,1.6310370214998722,-9.664362174481154,0.3320161782570183
1700007855598358300,5.635358154296875,1.6199860506534576,-9.665694884389639,0.3469881584720686
1700007855608304000,5.64530419921875,1.609680929738283,-9.666841131815314,0.362636686241813
1700007855618251000,5.6552509765625,1.6017456066943705,-9.667571199655532,0.3779484928704798
1700007855628197000,5.665197021484375,1.5946850206583738,-9.668090839615463,0.3941877530749887
1700007855638143000,5.67514306640625,1.585690543950349,-9.668857732334732,0.4113406575256958
1700007855648090000,5.685090087890625,1.5726703188575804,-9.670276366961001,0.42759840323496606
1700007855658036200,5.6950361328125,1.5547203822776674,-9.672550741633772,0.44160486288610845
1700007855667982000,5.704982177734375,1.5336010218814013,-9.675403208455442,0.4528078094238415
1700007855677929200,5.71492919921875,1.5105677906878292,-9.678631522852182,0.4611807567000389
1700007855687875000,5.724875,1.487352627056092,-9.681986093977093,0.4661631482224911
1700007855697821200,5.7348212890625,1.4663872881777584,-9.685109778955578,0.467729265028052
1700007855707768300,5.744768310546875,1.4486173843398689,-9.687805009388923,0.46726592183262106
1700007855717714200,5.754714111328125,1.4333857668079435,-9.690152449297905,0.465522293035686
1700007855727661000,5.7646611328125,1.4206390979595482,-9.69217547955811,0.4624608231058344
1700007855737607200,5.774607177734375,1.4106285760767756,-9.693823246765136,0.45858810985833404
1700007855747553000,5.784552978515625,1.4032095319919287,-9.695101596137881,0.4542787222266197
1700007855757500200,5.794500244140625,1.3985286806993185,-9.695971364709735,0.4501280322879553
1700007855767446000,5.804446044921875,1.397847420436889,-9.696254857826233,0.44615653484109785
1700007855777392000,5.81439208984375,1.4016421365447342,-9.695882517382502,0.44228404078930617
1700007855787339300,5.82433935546875,1.4094612858630715,-9.694906950348615,0.4388158166894689
1700007855797285000,5.83428515625,1.4205948204264045,-9.693396545785665,0.43632217324282974
1700007855807232300,5.844232177734375,1.4343720013663173,-9.691430798670648,0.43490693615004417
1700007855817178000,5.85417822265625,1.4495276310525833,-9.68922715114653,0.43375769304968415
1700007855827124200,5.864124267578125,1.465837837601453,-9.686810153132676,0.4328989207958802
1700007855837071000,5.874071044921875,1.4829844949744642,-9.684224228292702,0.4323510411221534
1700007855847017000,5.884016845703125,1.5018991849333048,-9.68132324615419,0.4320512179253623
1700007855856963000,5.893963134765625,1.5223082051031291,-9.678126495939493,0.43223662096224724
1700007855866910200,5.90391015625,1.5435715040147304,-9.674732177326083,0.43285380301252
1700007855876856000,5.91385595703125,1.5658797819346189,-9.6711210010916,0.4334236387897283
1700007855886802200,5.92380224609375,1.5900446475066243,-9.667151512938737,0.4339927439145744
1700007855896749000,5.9337490234375,1.6173085020072757,-9.66259574933052,0.4346388963310048
1700007855906695200,5.943695068359375,1.6474105025433003,-9.65750397914946,0.4348024528622627
1700007855916642300,5.953642333984375,1.6786301089324056,-9.652200027522444,0.43317777426987886
1700007855926588200,5.963588134765625,1.7094260830819605,-9.64696738756597,0.4292618064025417
1700007855936534300,5.9735341796875,1.7392641719847917,-9.641867434078454,0.42395200955662876
1700007855946481200,5.983481201171875,1.7686011794976888,-9.636727148580551,0.41942970982659605
1700007855956427000,5.993427001953125,1.7979807109780608,-9.63139513990283,0.41697785969506945
1700007855966373000,6.003373046875,1.8277676542155443,-9.625749242970347,0.41787510079573836
1700007855976320000,6.013320068359375,1.8582146687969565,-9.619747372207044,0.4217967312188819
1700007855986266000,6.02326611328125,1.8892926747582852,-9.613432197710871,0.4276449823230505
1700007855996213200,6.033213134765625,1.9195872752569614,-9.607135727915168,0.4341563369784504
1700007856006159000,6.0431591796875,1.9480197351455688,-9.601163667768239,0.4396280463878065
1700007856016105200,6.053105224609375,1.9751772066622972,-9.595461072212457,0.4429414087194949
1700007856026052400,6.06305224609375,2.0020241509251298,-9.589858429899811,0.44372696960661556
1700007856035997200,6.0729970703125,2.029138952343911,-9.584237082886695,0.4420427063141018
1700007856045944300,6.0829443359375,2.0568964355804025,-9.578480126795172,0.43851690680813044
1700007856055890200,6.09289013671875,2.085654474161565,-9.572471241769193,0.43382988150306045
1700007856065837000,6.102837158203125,2.1147524122215806,-9.566300444179772,0.4290765494961291
1700007856075783000,6.112782958984375,2.1432827795267104,-9.560138414418697,0.42484998130965973
1700007856085729300,6.122729248046875,2.170667045536637,-9.554104394951462,0.4215395415874198
1700007856095676200,6.13267626953125,2.1966329691812394,-9.5482872331053,0.41882666589953005
1700007856105622300,6.142622314453125,2.220688675290346,-9.54284358074665,0.41604551074840124
1700007856115568400,6.152568359375,2.2420564574897286,-9.538005493065715,0.4123381806630641
1700007856125515300,6.162515380859375,2.259802834321558,-9.534008532384037,0.4078624600211158
1700007856135461400,6.17246142578125,2.275133966705203,-9.530605445942282,0.4021181807480752
1700007856145408500,6.182408447265625,2.2876925656355915,-9.527826628878712,0.3967213632058352
1700007856155354400,6.192354248046875,2.2979846809387205,-9.525525366199016,0.3924600159669295
1700007856165300500,6.202300537109375,2.305627450776845,-9.523842527678609,0.3884048588246107
1700007856175247000,6.2122470703125,2.309937422930449,-9.52302010537982,0.38295842998698354
1700007856185193200,6.222193115234375,2.3120433091685175,-9.522767591923476,0.37647524198014287
1700007856195139300,6.232139404296875,2.312088463484496,-9.523040563645958,0.369220156285353
1700007856205086200,6.242086181640625,2.3098672803036866,-9.523922022655606,0.3602552344653755
1700007856215032300,6.2520322265625,2.3049938290484246,-9.525528288808465,0.3488569114860147
1700007856224978200,6.261978271484375,2.296743887097388,-9.528035303193331,0.3344951355911791
1700007856234925300,6.27192529296875,2.285657991068065,-9.531288752031326,0.31728334056008606
1700007856244871400,6.281871337890625,2.2740774433895945,-9.534709374129772,0.297115289539285
1700007856254818300,6.291818359375,2.2603892559073864,-9.538623917225003,0.27504173369072377
1700007856264764400,6.301764404296875,2.2449518866702913,-9.542889173454046,0.2526718617767095
1700007856274710300,6.311710205078125,2.229944287152588,-9.546951600587368,0.23122398181213064
1700007856284657200,6.3216572265625,2.216333694951236,-9.550561607778072,0.21218566547362133
1700007856294603300,6.331603271484375,2.2039630198083815,-9.55375543538332,0.19672939060665665
1700007856304549000,6.341549072265625,2.191949925931543,-9.556744680327176,0.18545955284517257
1700007856314496300,6.351496337890625,2.180909622609615,-9.559411853709816,0.17796905095931143
1700007856324442400,6.3614423828125,2.1710401166327298,-9.561742342483997,0.17340557896867392
1700007856334389200,6.37138916015625,2.161885773187876,-9.563841360589862,0.17197866970440373
1700007856344335400,6.38133544921875,2.1527581716194746,-9.565887771725654,0.17265987516790626
1700007856354281200,6.39128125,2.1427558330431578,-9.568097264468669,0.17464575175549835
1700007856364228400,6.401228271484375,2.132043008109927,-9.570438274636864,0.17744815062405542
1700007856374174500,6.411174560546875,2.1203173528723416,-9.572992635294794,0.18017858023494482
1700007856384120300,6.421120361328125,2.107751739679277,-9.575714753735065,0.18292143093599006
1700007856394067200,6.431067138671875,2.0949128625027833,-9.578480711317061,0.18552750351484865
1700007856404013300,6.441013427734375,2.0822527028940616,-9.581196984538435,0.18785262199416755
1700007856413959200,6.450959228515625,2.070132495380938,-9.58378174033463,0.18998873897371812
1700007856423906300,6.46090625,2.0586723592117426,-9.5862034145236,0.19225975264562292
1700007856433852200,6.47085205078125,2.0491814772889017,-9.588188450860976,0.19463068302804604
1700007856443799300,6.48079931640625,2.0413556059688327,-9.589812837192415,0.1968383674064651
1700007856453745400,6.490745361328125,2.0323633212178946,-9.591700258374214,0.19790409694183617
1700007856463691300,6.500691162109375,2.018955996503681,-9.594551556152105,0.19692842031009494
1700007856473638400,6.510638427734375,2.0009695273056627,-9.598379590007662,0.19395429987013338
1700007856483584500,6.52058447265625,1.9815268679499625,-9.602495208632945,0.18982755706263704
1700007856493530400,6.5305302734375,1.96425220028311,-9.606129181221126,0.1854455608524382
1700007856503477200,6.540477294921875,1.950106916683167,-9.609095629811286,0.18099709354359655
1700007856513423000,6.550423095703125,1.938652333471924,-9.61151262782514,0.17560316207818685
1700007856523370200,6.560370361328125,1.9286488258518277,-9.613654316028953,0.16829130469486117
1700007856533316400,6.57031640625,1.9192171267703175,-9.615694881945847,0.15926924586016683
1700007856543262200,6.58026220703125,1.9101981001429258,-9.617646600535512,0.149721610515099
1700007856553209300,6.590209228515625,1.9020162549920379,-9.61940250429213,0.14078224326148628
1700007856563155200,6.6001552734375,1.8950293187141418,-9.62089420415461,0.13285707628540694
1700007856573101300,6.610101318359375,1.8894841056771576,-9.622076691937446,0.12607048488520084
1700007856583048400,6.62004833984375,1.8859858882978557,-9.622837739437818,0.12013107576570473
1700007856592994300,6.629994384765625,1.884630528166145,-9.623171501436829,0.11452109952997415
1700007856602941200,6.639941162109375,1.884550448667258,-9.623252165457606,0.10898192350813186
1700007856612887300,6.64988720703125,1.884697455922514,-9.623286652249098,0.1033018046456389
1700007856622833200,6.659833251953125,1.8837157514087854,-9.623541503793001,0.0971345324538648
1700007856632780300,6.6697802734375,1.8805629864662885,-9.624227147969602,0.0900657905108761
1700007856642726100,6.67972607421875,1.8748720813483,-9.62540554409921,0.08253668278083205
1700007856652672300,6.68967236328125,1.867455521481484,-9.626913026052712,0.07468113784170709
1700007856662619400,6.699619384765625,1.8598792410083114,-9.628433367487787,0.06720461424884852
1700007856672565200,6.709565185546875,1.8529782294481991,-9.629806409406662,0.060863908019196236
1700007856682512400,6.719512451171875,1.8471445548586547,-9.630955579441785,0.05618514365239534
1700007856692458500,6.72945849609375,1.8405873883001505,-9.632231006205082,0.0525550709211966
1700007856702404400,6.739404296875,1.834381081005931,-9.633432783210276,0.049198472235980444
1700007856712351200,6.749351318359375,1.830141543740034,-9.63424936029017,0.04717546024208422
1700007856722297000,6.759297119140625,1.8279355581283567,-9.634671385094522,0.046251664494629946
1700007856732243200,6.7692431640625,1.8289964653581379,-9.634469140520691,0.04638810469009913
1700007856742190300,6.7791904296875,1.8308346405707299,-9.63411784286499,0.047267755335150284
1700007856752136200,6.78913623046875,1.8326484119944273,-9.63376128451228,0.049237995962193234
1700007856762083300,6.799083251953125,1.835571313703805,-9.633187284016609,0.05273312176868785
1700007856772029400,6.809029541015625,1.8411568587511777,-9.632092474517226,0.05771353139660786
1700007856781975300,6.818975341796875,1.8450092963956295,-9.631309799706935,0.0647004220087314
1700007856791922400,6.82892236328125,1.849023792733997,-9.630481532189249,0.07283096623064483
1700007856801868300,6.838868408203125,1.8558906097635626,-9.629086862960458,0.08214468778856099
1700007856811814400,6.848814453125,1.8649828477576373,-9.627229836916923,0.09315209348788485
1700007856821761300,6.85876123046875,1.8759872029833495,-9.624968321725726,0.10519735433496534
1700007856831707100,6.86870703125,1.8888577904723582,-9.622298810255527,0.11827226875703781
1700007856841654300,6.878654296875,1.9041114737056195,-9.619116088566184,0.13170892003043555
1700007856851600400,6.888600341796875,1.9185561786435543,-9.61604734864533,0.14544017946938984
1700007856861546200,6.898546142578125,1.9294836692407726,-9.613650224375725,0.15874259163755922
1700007856871493400,6.908493408203125,1.937542326403409,-9.611820086339115,0.17104197337618096
1700007856881439200,6.918439208984375,1.9448076412312685,-9.610160044172405,0.18148663062620907
1700007856891385300,6.92838525390625,1.953395875225961,-9.608260932552813,0.1895934925784357
1700007856901332500,6.93833251953125,1.964249716065079,-9.60591933786273,0.1960204568860121
1700007856911278300,6.9482783203125,1.9773915217109024,-9.603109541139006,0.20147327893180772
1700007856921225200,6.95822509765625,1.9920172823041675,-9.599971243113279,0.20687999681355432
1700007856931171000,6.968171142578125,2.009569597868621,-9.59620341501236,0.2118931853330694
1700007856941117200,6.9781171875,2.031316150252521,-9.591533085113763,0.21596037997305392
1700007856951064300,6.988064208984375,2.0561814191788432,-9.586156068250537,0.21941435635183004
1700007856961010200,6.99801025390625,2.0806310930415988,-9.58081412270069,0.22216571915289385
1700007856970956300,7.007956298828125,2.1049322983443735,-9.575465162888168,0.22388072464354336
1700007856980903400,7.0179033203125,2.1277983562774954,-9.5703909283638,0.22469960327837615
1700007856990849300,7.027849365234375,2.147121919298172,-9.566071311599016,0.22484440031023695
1700007857000796400,7.03779638671875,2.163055547619611,-9.56248351624012,0.22478452334916219
1700007857010742300,7.0477421875,2.1748032685585317,-9.559790039372444,0.2259634674680419
1700007857020688400,7.0576884765625,2.1840413447640836,-9.557631984555721,0.22809152900530025
1700007857030635300,7.06763525390625,2.1921226521499455,-9.555717090845107,0.23082181248571723
1700007857040581000,7.0775810546875,2.2001645043082534,-9.553803950700162,0.23334669132083652
1700007857050527200,7.08752734375,2.2087300880797205,-9.5517955334872,0.23480043379310517
1700007857060474400,7.097474365234375,2.2181654404230415,-9.549585456222296,0.23574971560826524
1700007857070420200,7.107420166015625,2.2277527684576808,-9.547335631468892,0.2364390678456053
1700007857080367600,7.11736767578125,2.237722958330065,-9.54499052964747,0.23687641808325424
1700007857090313500,7.1273134765625,2.247621690401435,-9.542635490953922,0.23815111419418825
1700007857100259600,7.137259521484375,2.2560772379271685,-9.540582065555453,0.24045480629298835
1700007857110206700,7.147206787109375,2.263137385571748,-9.538823823711276,0.24386353702424093
1700007857120152600,7.157152587890625,2.2693983456626534,-9.53722924799621,0.24791505917105822
1700007857130098700,7.1670986328125,2.2743013152733442,-9.53594388436079,0.25238212158251555
1700007857140045300,7.17704541015625,2.2772794543012975,-9.53512380014956,0.2565203904310241
1700007857149991400,7.186991455078125,2.277885165109485,-9.534882392609118,0.26006401785463096
1700007857159938600,7.1969384765625,2.2760987200841307,-9.535224337914585,0.2631456903222948
1700007857169884400,7.206884521484375,2.2742430092148482,-9.535621812799572,0.26482441892316566
1700007857179830500,7.21683056640625,2.273192184987664,-9.535825226417183,0.2665347299723886
1700007857189777700,7.226777587890625,2.272807715714723,-9.535870234602688,0.2681620937122032
1700007857199723500,7.2367236328125,2.2728525777697564,-9.53584919181466,0.2685251000720076
1700007857209669600,7.246669677734375,2.2734693944938478,-9.535748069527745,0.2668202506491914
1700007857219616500,7.256616455078125,2.274696598201245,-9.53553471903801,0.26407537238784135
1700007857229562600,7.266562744140625,2.2755559915095565,-9.535413723006844,0.2610203139324672
1700007857239509500,7.276509521484375,2.2762986265704033,-9.53536286960244,0.25637082589250054
1700007857249455400,7.286455322265625,2.2754005086869,-9.5357393016994,0.25022424942888316
1700007857259401500,7.2964013671875,2.2726038637056947,-9.536610823836922,0.24225266776150092
1700007857269348400,7.306348388671875,2.26948865429461,-9.537560087385772,0.23392719462253153
1700007857279294500,7.31629443359375,2.2642112984135747,-9.53900327193141,0.22615807672468943
1700007857289240600,7.326240478515625,2.254737221495062,-9.541422608032821,0.2186739497806877
1700007857299187500,7.3361875,2.240871631619334,-9.544856089612841,0.2112457177423872
1700007857309133600,7.346133544921875,2.2260360276676714,-9.548489477679134,0.20380276305899023
1700007857319080700,7.356080810546875,2.212543508888036,-9.551764553827047,0.19712739521460607
1700007857329026600,7.366026611328125,2.2001246106892824,-9.554745615464448,0.19151340952403842
1700007857338972700,7.37597265625,2.190161581210047,-9.557124035033583,0.18701094700563697
1700007857348919300,7.385919189453125,2.1825018602371213,-9.55893956002295,0.1838129729482345
1700007857358865400,7.395865478515625,2.1766766612149775,-9.560302080547809,0.18183968184757976
1700007857368811500,7.4058115234375,2.1713845461562276,-9.56152957651615,0.1806694324918091
1700007857378758400,7.41575830078125,2.165515946383774,-9.562863455468415,0.18052582277003676
1700007857388704500,7.42570458984375,2.15969133188352,-9.564178045198322,0.18064515656707808
1700007857398651600,7.435651611328125,2.153753612397611,-9.565516015803814,0.1806210085065104
1700007857408597500,7.445597412109375,2.148395300234854,-9.566735912987589,0.17985725759239865
1700007857418543600,7.455543701171875,2.143937736304104,-9.567755903685093,0.1787239792461507
1700007857428490500,7.465490478515625,2.1399279161408544,-9.568666588789224,0.17806268405951559
1700007857438436600,7.4754365234375,2.136515769609809,-9.569435819596052,0.17769659069348126
1700007857448383500,7.485383544921875,2.133827115047723,-9.570041968795657,0.17731144556710496
1700007857458329300,7.495329345703125,2.1322132501102984,-9.57040904854238,0.17698754737498237
1700007857468275500,7.505275390625,2.131518691974878,-9.570572130149602,0.17662028496516868
1700007857478222600,7.51522265625,2.130674350105226,-9.570762099763751,0.17641915463618932
1700007857488168400,7.52516845703125,2.129181042807549,-9.571104045069218,0.17595608543539418
1700007857498114600,7.535114501953125,2.1264242914453146,-9.571735328710078,0.17487389795556663
1700007857508061400,7.5450615234375,2.123424817368388,-9.572431494280695,0.1732332911416888
1700007857518007600,7.555007568359375,2.12060990607813,-9.573092004016042,0.17118614935353396
1700007857527954700,7.56495458984375,2.1176742910176514,-9.57378407793343,0.16887273957831783
1700007857537900500,7.574900634765625,2.114307591063529,-9.574571428918837,0.16640311632808297
1700007857547846700,7.5848466796875,2.1108963213153182,-9.575359364426136,0.1642633643530309
1700007857557793500,7.59479345703125,2.108370748360455,-9.575938625618814,0.16294930434608831
1700007857567739400,7.604739501953125,2.1070359926253555,-9.576234978216887,0.16284898577677084
1700007857577685500,7.614685546875,2.106340557707101,-9.576372925382852,0.16367011116761712
1700007857587632400,7.62463232421875,2.1056192576952277,-9.576500351154804,0.16554954997235907
1700007857597578500,7.63457861328125,2.1038976945996284,-9.576820084628462,0.16881322794342413
1700007857607525600,7.644525634765625,2.1012236530847845,-9.577319266322254,0.17368885288946329
1700007857617471500,7.654471435546875,2.097898308054358,-9.577932429784536,0.17999266574140638
1700007857627417600,7.66441748046875,2.093882350411266,-9.578680033281445,0.18688658997360616
1700007857637364500,7.674364501953125,2.089090001568198,-9.579598317170143,0.19332873358400537
1700007857647310600,7.684310546875,2.082847746177763,-9.580843933317064,0.19889350983798504
1700007857657256700,7.694256591796875,2.0748745753414926,-9.582472995823622,0.20370973274698478
1700007857667203300,7.704203369140625,2.0648992709025737,-9.58452759026587,0.20835754028651862
1700007857677149400,7.7141494140625,2.0539152278125283,-9.586787936413288,0.21287039633477106
1700007857687096600,7.7240966796875,2.0429827687792477,-9.589013211247325,0.2178133508959785
1700007857697042400,7.73404248046875,2.032033504741639,-9.59118354102373,0.22461296617453916
1700007857706988500,7.743988525390625,2.0213084048487246,-9.59325567112267,0.2326694496463984
1700007857716935400,7.753935302734375,2.00991285834834,-9.595458149603008,0.24039962377334012
1700007857726881500,7.763881591796875,1.9988471283242106,-9.59761971155107,0.24634433925561605
1700007857736828700,7.77382861328125,1.9897772482924163,-9.599387305745482,0.2507990536421537
1700007857746774500,7.7837744140625,1.9832272421270607,-9.600672084859013,0.253627171473857
1700007857756720600,7.793720703125,1.9792818655021487,-9.60146294297576,0.25447030776711177
1700007857766667500,7.80366748046875,1.976633104559034,-9.602037527993321,0.25339719864288346
1700007857776613400,7.81361328125,1.9762557956792413,-9.60216962994039,0.25125297142211345
1700007857786559500,7.8235595703125,1.9781158904626965,-9.601837621507048,0.24931592067861927
1700007857796506400,7.83350634765625,1.9807484309233725,-9.601344285032152,0.2474113109000027
1700007857806452500,7.843452392578125,1.981667007073015,-9.601202246212958,0.2455478916483
1700007857816399600,7.853399658203125,1.9817671064466238,-9.6012566067487,0.2426461240584962
1700007857826345500,7.863345458984375,1.984969848010689,-9.600704233562945,0.23827265821462495
1700007857836291600,7.87329150390625,1.9917261904031036,-9.599434067496658,0.23300085529154166
1700007857846238700,7.88323876953125,2.0003020033076404,-9.597774025329947,0.2278283662907779
1700007857856184600,7.8931845703125,2.0098774947740137,-9.59590297076106,0.22228023064434527
1700007857866130700,7.903130615234375,2.0195193294748663,-9.594025486451386,0.21580811202079056
1700007857876077300,7.913077392578125,2.029854407136887,-9.592008885931968,0.20846227930262684
1700007857886023400,7.9230234375,2.0414622812137004,-9.589714637514948,0.20052896555271
1700007857895970600,7.932970458984375,2.0549794960431753,-9.586984920290112,0.19272252958547323
1700007857905916400,7.94291650390625,2.0696904507018625,-9.583972878992556,0.1850270066468045
1700007857915862500,7.952862548828125,2.0852932396337387,-9.580735796767472,0.17737234544148667
1700007857925809400,7.962809326171875,2.1020494363844393,-9.577204115509986,0.17009621695866808
1700007857935755500,7.972755615234375,2.119073344160616,-9.573552607265114,0.1644271218136884
1700007857945702700,7.98270263671875,2.1355235437020657,-9.569950783380866,0.16119915447682143
1700007857955648500,7.9926484375,2.1496333175972104,-9.566813654398917,0.15976676531983539
1700007857965594600,8.0025947265625,2.1631549163408574,-9.563758358481525,0.16023683051699772
1700007857975541500,8.01254150390625,2.175864468049258,-9.560828734770416,0.16292997859111055
1700007857985487400,8.0224873046875,2.1877337695412336,-9.55804524153173,0.16724559503421185
1700007857995434500,8.0324345703125,2.1989356931656596,-9.55537514553964,0.172778313915804
1700007858005380400,8.04238037109375,2.2094570871800183,-9.552824876534938,0.17947463321667165
1700007858015326500,8.052326416015624,2.219783104752749,-9.550293312230705,0.18667177817914635
1700007858025273600,8.062273681640624,2.228791171594709,-9.548037642258405,0.1944910370953381
1700007858035219500,8.072219482421875,2.236136273660511,-9.546129762810468,0.2036070030248724
1700007858045165600,8.08216552734375,2.241965125944465,-9.54453810970485,0.21390406849775462
1700007858055112700,8.09211279296875,2.245393346827477,-9.543476033431292,0.225013546332065
1700007858065058600,8.10205859375,2.2458191710241135,-9.543097263246775,0.23652829876532777
1700007858075005400,8.11200537109375,2.2442875775426625,-9.543173251092433,0.24782228458737954
1700007858084951600,8.12195166015625,2.2420788154520093,-9.543416412198543,0.2582326011763885
1700007858094897400,8.1318974609375,2.2391617589615285,-9.543857726225257,0.2670530912906863
1700007858104844500,8.141844482421876,2.23573675294891,-9.544475565862655,0.27366295615080743
1700007858114790700,8.151790771484375,2.2333779148630795,-9.544887069272994,0.2784986509452574
1700007858124736500,8.161736572265625,2.233735057737678,-9.544704698443413,0.28182165788812563
1700007858134683600,8.17168359375,2.2372474497728048,-9.543823823955654,0.2838496931170113
1700007858144629800,8.181629638671875,2.243301050723344,-9.542367195406555,0.2849632803821005
1700007858154576600,8.19157666015625,2.2497242156386372,-9.540825811183453,0.28599824945302676
1700007858164522800,8.201522705078125,2.2556084513716397,-9.539417113429307,0.28657458803625774
1700007858174468600,8.211468505859376,2.2607029980316757,-9.53822001259923,0.2863352263224311
1700007858184415500,8.22141552734375,2.2643509991452095,-9.537386484384536,0.285273643239215
1700007858194361600,8.231361572265625,2.2663344280473887,-9.536977319061755,0.2831691452406347
1700007858204308500,8.24130859375,2.2681629586488006,-9.53661550001204,0.2807389406853355
1700007858214254600,8.251254638671876,2.2705575987003743,-9.536078908917307,0.2795895514545031
1700007858224200700,8.26120068359375,2.2744500760942694,-9.53516004050672,0.27924280210975555
1700007858234147600,8.271147705078125,2.2788901043683287,-9.534111992758511,0.2788512272425927
1700007858244093700,8.28109375,2.2846368313267824,-9.532767007890342,0.2778385248024016
1700007858254039600,8.29103955078125,2.291645394914597,-9.53111222642064,0.2768637797524221
1700007858263986700,8.300986572265625,2.2989681390181183,-9.529365090492368,0.2762806826348416
1700007858273932800,8.310932861328125,2.3065957112871107,-9.52755131906867,0.27520797536941244
1700007858283879400,8.32087939453125,2.314061663253605,-9.525770280870795,0.2742565563960932
1700007858293825500,8.330825439453125,2.3219681985944507,-9.52387467638254,0.27328389370534567
1700007858303771600,8.340771728515625,2.3300912992954252,-9.521908344745636,0.2726535233799368
1700007858313718500,8.350718505859374,2.3373135056339205,-9.520136658897995,0.27272521864296867
1700007858323664600,8.36066455078125,2.3413624887637794,-9.519114330112934,0.27359175407812
1700007858333611800,8.37061181640625,2.3418263068832457,-9.518964107987284,0.274855362539459
1700007858343557600,8.3805576171875,2.3413493370212612,-9.5190482791394,0.27607933311015365
1700007858353503700,8.390503662109374,2.3409856182754036,-9.519099717065691,0.2773619385329075
1700007858363450600,8.40045068359375,2.340297636011243,-9.519227727359533,0.27877967811003324
1700007858373396700,8.410396728515625,2.33985515294075,-9.519289686679839,0.2803528091782704
1700007858383342800,8.4203427734375,2.3392592328742143,-9.519379118528962,0.28227131961807606
1700007858393289500,8.43028955078125,2.3383956017822025,-9.51953284778595,0.28423498437386
1700007858403235600,8.440235595703125,2.3383849342577157,-9.519483747947216,0.2859980119910091
1700007858413182700,8.4501826171875,2.3406895579382776,-9.51885947856903,0.2879244134763256
1700007858423128600,8.460128662109375,2.3444573860391973,-9.517885080578923,0.289449832945317
1700007858433074700,8.47007470703125,2.3482293057933448,-9.516917696851491,0.2906877589761279
1700007858443021600,8.480021484375,2.351311051326245,-9.516120993515848,0.29187910591885446
1700007858452967700,8.4899677734375,2.3535621912539004,-9.515525950232147,0.2931017430489883
1700007858462914800,8.499914794921875,2.3546748286709187,-9.515220245283842,0.2940425675630569
1700007858472860700,8.509860595703126,2.355428423517197,-9.51502033879757,0.29453868051692844
1700007858482806800,8.519806884765625,2.3563601514093575,-9.514777177691458,0.29493091297121715
1700007858492753700,8.529753662109375,2.357319936352223,-9.5145141428411,0.2957108113025315
1700007858502699500,8.539699462890624,2.358759613766521,-9.514120759609341,0.2969263793710619
1700007858512645600,8.549645751953125,2.361051085704565,-9.513512272322178,0.29816147412396965
1700007858522592500,8.559592529296875,2.364014611685276,-9.512747717690468,0.29906903568925336
1700007858532538600,8.56953857421875,2.367631925399601,-9.511828264757991,0.29975184858795256
1700007858542485800,8.57948583984375,2.3709853274807333,-9.510974862799047,0.300319693337474
1700007858552431600,8.589431640625,2.3728606198333204,-9.510483864411711,0.301014927326329
1700007858562377700,8.599377685546875,2.3735433414004743,-9.510283957925438,0.30200539966840295
1700007858572324600,8.60932470703125,2.3737512850627303,-9.510189849901199,0.30330044444762166
1700007858582270700,8.619270751953126,2.3740407695285977,-9.510070022913814,0.30477312908237797
1700007858592217600,8.629217529296875,2.3742092579632996,-9.509987605327368,0.3060080594385043
1700007858602163500,8.63916357421875,2.3742504667565227,-9.509954872101545,0.3067507675645873
1700007858612109600,8.649109619140624,2.3740412079200146,-9.509999880287051,0.3069446461688727
1700007858622056700,8.659056640625,2.3737580070644615,-9.510071776479482,0.30691987705379725
1700007858632002600,8.66900244140625,2.372637624732405,-9.51035585411787,0.3067651248835027
1700007858641949700,8.67894970703125,2.3710529858894644,-9.510763850396872,0.30640045628957446
1700007858651895600,8.6888955078125,2.369921643771976,-9.511070139867067,0.30568158569680526
1700007858661841700,8.698841552734375,2.3698770739778876,-9.511118070662022,0.30447526038065553
1700007858671788800,8.708788818359375,2.370619270647317,-9.510979538974166,0.30300732498625293
1700007858681734700,8.718734619140625,2.3719391210742296,-9.510698383945225,0.3015579664281569
1700007858691680800,8.7286806640625,2.3728777170985937,-9.510508998852968,0.30012663671709594
1700007858701627600,8.738627685546875,2.372745030629635,-9.510592000961303,0.29856872148429975
1700007858711573500,8.748573486328125,2.3720739995002744,-9.510807689538597,0.2969439515603706
1700007858721520600,8.758520751953125,2.372198941054195,-9.510832823979854,0.2951092652128078
1700007858731466500,8.768466552734376,2.372520135832578,-9.510776709878444,0.29438781907046213
1700007858741412600,8.77841259765625,2.3734584395959972,-9.510525949987768,0.29490497481236233
1700007858751359700,8.78835986328125,2.3742969362467528,-9.510322536370158,0.2947208686834201
1700007858761305600,8.7983056640625,2.375762478754669,-9.51000221837461,0.29325850451327856
1700007858771252700,8.808252685546876,2.378500233155489,-9.509373857343196,0.2915010115877725
1700007858781198800,8.81819873046875,2.3815907465167343,-9.508644374024868,0.29001877367338164
1700007858791144700,8.828144775390625,2.3846797985732553,-9.507919566881656,0.2883819662517868
1700007858801091600,8.838091552734374,2.3885088553421197,-9.507007128211855,0.2867663660150021
1700007858811037400,8.848037353515625,2.3931512743204832,-9.5058994592309,0.2847840330913663
1700007858820984600,8.857984619140625,2.3982917059488593,-9.504660272824763,0.2828780716058798
1700007858830930700,8.8679306640625,2.4031756785981355,-9.503454404166341,0.28187958035413174
1700007858840876500,8.87787646484375,2.405349223244935,-9.502931841596961,0.28099269625069573
1700007858850823700,8.88782373046875,2.4041737497247753,-9.503260927420854,0.2798866895038634
1700007858860769500,8.89776953125,2.4022724461480975,-9.503783489990234,0.278540097200498
1700007858870715600,8.907715576171874,2.401261953931302,-9.504083349719643,0.2769508735139854
1700007858880662800,8.917662841796876,2.400680793042481,-9.504280333596467,0.2752727842339314
1700007858890608600,8.927608642578125,2.3999669456847013,-9.50450069834888,0.27391614546058696
1700007858900555500,8.937555419921875,2.3994898296922442,-9.504643321689963,0.27315509796021503
1700007858910501600,8.947501708984374,2.3995785308890043,-9.504641568124294,0.27237978447247296
1700007858920447500,8.957447509765625,2.399710486705601,-9.504640399080515,0.2712169147055596
1700007858930394600,8.96739453125,2.4009257077142596,-9.50436742735803,0.27008254038076845
1700007858940340500,8.977340576171875,2.402776888538897,-9.503931958550215,0.26885133635168895
1700007858950287600,8.98728759765625,2.4047609019629657,-9.503481292173266,0.26712138902023436
1700007858960233700,8.997233642578125,2.4075059628874063,-9.502826043134927,0.26568817787934096
1700007858970179600,9.0071796875,2.4107155725836753,-9.502038692149519,0.2647542945627123
1700007858980126700,9.017126708984375,2.4142471077106893,-9.501166585490108,0.2638620036317967
1700007858990072800,9.02707275390625,2.418093992397189,-9.500215568375587,0.2629362853553146
1700007859000018700,9.037018798828125,2.421771804127097,-9.499307805880903,0.26182324607949703
1700007859009965600,9.046965576171875,2.424645167606324,-9.49860579509139,0.26075300476578994
1700007859019911400,9.056911376953124,2.4266648368656636,-9.498115965747832,0.2598123263821937
1700007859029858600,9.066858642578126,2.427469431246817,-9.497926580655575,0.25911612427895886
1700007859039804700,9.0768046875,2.42719324465394,-9.498013674417138,0.25853921944014724
1700007859049750500,9.08675048828125,2.4264618616394698,-9.498211242815852,0.2581227841263637
1700007859059697700,9.09669775390625,2.4265387262679634,-9.4981972142905,0.2579662783904001
1700007859069643800,9.106643798828125,2.4265571387074885,-9.49819546072483,0.2579213980690576
1700007859079590700,9.116590576171875,2.426785686766356,-9.498136424013971,0.2579294535113498
1700007859089536000,9.126535888671874,2.427312340988964,-9.49800841372013,0.2576382885450497
1700007859099482000,9.136482177734376,2.4272519891038535,-9.498052837383746,0.2566454233164899
1700007859109429000,9.146428955078125,2.4263110549919307,-9.498323471018672,0.25544662371966986
1700007859119375000,9.156375,2.424645313736796,-9.498779398092626,0.2543218026745133
1700007859129322000,9.166322021484374,2.4221504281811415,-9.499432893565297,0.253687121500168
1700007859139267800,9.176267822265626,2.4186726690679787,-9.500317859706282,0.2537229965311475
1700007859149214000,9.1862138671875,2.41429664594084,-9.501416760858893,0.25423792378334326
1700007859159161000,9.1961611328125,2.4085817754253744,-9.502845916879176,0.2550147716410458
1700007859169107000,9.20610693359375,2.40067772430256,-9.504825107997656,0.255731559874583
1700007859179053000,9.216052978515625,2.389458557282388,-9.50765127133429,0.25575455715768036
1700007859189000000,9.226,2.374028494568914,-9.511535419291258,0.2550519618462771
1700007859198946000,9.235946044921874,2.353003826718777,-9.516786179426312,0.2540291216045618
1700007859208893200,9.24589306640625,2.3263879147328437,-9.523362635207176,0.2527299669058062
1700007859218839000,9.255839111328125,2.293438123550266,-9.531408579018711,0.2505383386130445
1700007859228785200,9.26578515625,2.2557189260087904,-9.540478605180978,0.24771075050430372
1700007859238732000,9.27573193359375,2.2155986586749554,-9.54996773353815,0.24413113845186307
1700007859248678000,9.285677978515626,2.175785849855095,-9.559226560270785,0.23977546399300917
1700007859258625000,9.295625,2.138623263283074,-9.567707388368248,0.23591935482043772
1700007859268571000,9.30557080078125,2.1025623543426395,-9.57578022018671,0.23243781458130106
1700007859278517000,9.31551708984375,2.0670748613759873,-9.583599954026937,0.22851190984183922
1700007859288464100,9.325464111328126,2.0298209432587027,-9.591643559750914,0.22490570204341784
1700007859298410000,9.335409912109375,1.9947084210842847,-9.599048867571353,0.2231134300654754
1700007859308357000,9.345357177734375,1.9626564555242656,-9.605652795881033,0.22313520350586621
1700007859318303200,9.35530322265625,1.9341769416235386,-9.61142027336657,0.22348792593367398
1700007859328249000,9.3652490234375,1.909623515125364,-9.616335517936944,0.22318587424717842
1700007859338196000,9.375196044921875,1.8884737595908343,-9.620535892236232,0.22215220208419487
1700007859348141800,9.385141845703124,1.8698888861082492,-9.624204936137795,0.22046026694187892
1700007859358089000,9.3950888671875,1.8533495469786225,-9.627451955235005,0.21825775192892177
1700007859368035000,9.40503515625,1.8395133293278514,-9.630155368974805,0.21603039473565294
1700007859377981000,9.41498095703125,1.8290984644278883,-9.63217547662556,0.2144051316213794
1700007859387928000,9.424927978515624,1.8232313259601591,-9.633303603872656,0.21375612966073676
1700007859397874200,9.434874267578126,1.8219389480620622,-9.633535074540973,0.21436730209533125
1700007859407820000,9.444820068359375,1.823825930852443,-9.633134092524648,0.21627267905892802
1700007859417767200,9.45476708984375,1.826704555028677,-9.632520929062366,0.21930421050824223
1700007859427713000,9.464713134765624,1.8293156143099067,-9.631942836913465,0.22288086341861635
1700007859437660000,9.474659912109376,1.8307208049327135,-9.631600891607999,0.22605912812855095
1700007859447606000,9.48460595703125,1.8304785206094383,-9.631586278560757,0.2286046478928998
1700007859457552000,9.4945517578125,1.8283767260245978,-9.631951604741811,0.2300797984793782
1700007859467499000,9.5044990234375,1.8247578048750757,-9.632627896568179,0.23046161913750693
1700007859477444900,9.51444482421875,1.8202201614454387,-9.633499418705702,0.2298940666489303
1700007859487392000,9.52439208984375,1.8162134100221097,-9.634279755428432,0.22895053872112184
1700007859497338000,9.534338134765624,1.81411950648278,-9.63469476597011,0.2280859395147301
1700007859507284000,9.544283935546876,1.8147846923932431,-9.634589552029967,0.22721830810103563
1700007859517231000,9.554231201171875,1.8181201204262674,-9.633972881436348,0.2267106325735338
1700007859527177200,9.56417724609375,1.8231321033693848,-9.633018357190489,0.22706498070284722
1700007859537123800,9.574123779296874,1.8283673736743629,-9.632003042668103,0.22798105436814947
1700007859547070000,9.584070068359376,1.8340343133948742,-9.630892451077699,0.2294037441150285
1700007859557015800,9.594015869140625,1.8395893171735107,-9.629796472534537,0.23097873834678903
1700007859566963000,9.603962890625,1.8447985762543975,-9.628758946180342,0.2326239482705481
1700007859576909000,9.613908935546876,1.8500703791774809,-9.627694531819223,0.23476866868166252
1700007859586856000,9.62385595703125,1.8554437427788972,-9.626598553276061,0.23732755938423797
1700007859596802000,9.633802001953125,1.861077218621224,-9.625438861846924,0.24022527185343204
1700007859606748200,9.643748046875,1.8673172820545731,-9.624147652992606,0.2435352549179457
1700007859616695000,9.653695068359376,1.87359884654209,-9.622835985872149,0.2470753752102144
1700007859626641200,9.66364111328125,1.8800716958180068,-9.621478726044296,0.2507758919622749
1700007859636588000,9.673588134765625,1.8868911665745078,-9.620041386717558,0.2546141732172109
1700007859646534000,9.683533935546874,1.8941396763980387,-9.618502340582012,0.25888209632737563
1700007859656480000,9.69347998046875,1.901682200732082,-9.616904257735609,0.26294196617743
1700007859666427000,9.703427001953125,1.9096520105674861,-9.615221419215201,0.2667283711146563
1700007859676373000,9.713373046875,1.9181389761447905,-9.613439796495436,0.26999066084623335
1700007859686319000,9.723319091796874,1.9274492408037185,-9.611495676690339,0.27289136899011207
1700007859696266000,9.733265869140626,1.9380401929229496,-9.609290860122442,0.27557607802944256
1700007859706212000,9.743212158203125,1.9494363239452241,-9.60690484176874,0.27833100276077166
1700007859716159200,9.7531591796875,1.9609956827051935,-9.60446504740119,0.28126020634677257
1700007859726105000,9.76310498046875,1.9726039951734244,-9.602000703114271,0.2842543101288378
1700007859736051200,9.77305126953125,1.9833869627334175,-9.599694764259457,0.2870650384343229
1700007859745997800,9.782997802734375,1.9927439891435206,-9.597682255393266,0.28958056491920725
1700007859755944000,9.79294384765625,2.0006953865393995,-9.595965514603257,0.2916845514611341
1700007859765891000,9.80289111328125,2.007905902440101,-9.594398411417007,0.2935923578438349
1700007859775837000,9.8128369140625,2.015252319680154,-9.59276876438856,0.29652510509379204
1700007859785783000,9.822782958984375,2.021508165204525,-9.591366496375203,0.2993569492525421
1700007859795730200,9.832730224609374,2.0258717672415076,-9.59038216151297,0.3013698417112231
1700007859805676000,9.842676025390626,2.030295428902656,-9.589396657606958,0.30295610625566916
1700007859815623200,9.852623046875,2.0349283494003116,-9.588355624121427,0.3048225942472927
1700007859825569000,9.862569091796875,2.038662859753519,-9.587503391206264,0.3066661580210551
1700007859835515100,9.87251513671875,2.0426725337862965,-9.586610241758823,0.30784437148757277
1700007859845462000,9.8824619140625,2.045578922752291,-9.585960253417491,0.3087618516586721
1700007859855407900,9.892407958984375,2.0476606974624096,-9.585490297818183,0.3095398502938449
1700007859865355000,9.90235498046875,2.051246154733747,-9.584680150479077,0.3109398898174986
1700007859875300900,9.91230078125,2.0539758719585834,-9.584028408572077,0.313024294876121
1700007859885247000,9.9222470703125,2.0540444071501494,-9.583944237419962,0.3151791713550687
1700007859895194000,9.932194091796875,2.053162363618612,-9.584072247713804,0.31696872165296225
1700007859905140000,9.942139892578124,2.0531037652991713,-9.584030746659636,0.31864144063815475
1700007859915087000,9.952087158203126,2.0536510239183903,-9.583861235311627,0.32022407018709925
1700007859925033200,9.962033203125,2.0537603295117615,-9.58377998676896,0.3218355605043471
1700007859934979000,9.97197900390625,2.0536105457775293,-9.583755436849593,0.3236070636888966
1700007859944926000,9.981926025390624,2.053167185924202,-9.583784662944078,0.3255361320553347
1700007859954871800,9.991871826171876,2.0525680509872735,-9.583848960351943,0.327438202816993
1700007859964818000,10.00181787109375,2.051917185863107,-9.583916180369258,0.3294978387605399
1700007859974765000,10.01176513671875,2.0515800628632306,-9.5839138422817,0.33169520267434416
1700007859984711000,10.0217109375,2.0512049459405244,-9.5839138422817,0.33397282875012607
1700007859994658000,10.031657958984376,2.0502762867882844,-9.584049451360105,0.3357997519163415
1700007860004604200,10.041604248046875,2.0493359371982516,-9.584205518704652,0.337105135426484
1700007860014550000,10.051550048828124,2.0482431735254822,-9.584404840669036,0.33806097484659403
1700007860024497200,10.0614970703125,2.0464961837276814,-9.584761399021744,0.3385107644407078
1700007860034443000,10.071443115234375,2.0446992173083127,-9.585149521556495,0.3383874668546021
1700007860044390000,10.081389892578125,2.0431806294389068,-9.585480945467948,0.33817239933181553
1700007860054336000,10.0913359375,2.041485662089288,-9.585848609736562,0.3379844390116632
1700007860064281900,10.10128173828125,2.0405733695499597,-9.586040332916378,0.3381054350428283
1700007860074229000,10.11122900390625,2.0403278703562915,-9.586077742317318,0.33846075128652153
1700007860084175400,10.12117529296875,2.03989693159312,-9.586154899206758,0.33886882063075896
1700007860094122500,10.13112255859375,2.038874602808058,-9.586345453342794,0.33968353454712774
1700007860104068400,10.141068359375,2.037141349274665,-9.58667161655724,0.34082101414445787
1700007860114014500,10.151014404296875,2.033436211146414,-9.58741922005415,0.34193807200826704
1700007860123961300,10.16096142578125,2.0272559150762857,-9.588691139686107,0.342920251446031
1700007860133907200,10.1709072265625,2.019770527756959,-9.590247721478342,0.34356377351395784
1700007860143854300,10.180854248046876,2.011587513562292,-9.591959201571346,0.3438329093115404
1700007860153800400,10.190800537109375,2.0034438084647057,-9.593662498357892,0.34381175692565735
1700007860163746300,10.200746337890624,1.9954719528026879,-9.595323709568381,0.3439247888460755
1700007860173693400,10.210693359375,1.987990657136589,-9.596870354488491,0.3440535663248971
1700007860183639300,10.220639404296875,1.9806060998432338,-9.598393034011124,0.34420382498316465
1700007860193586400,10.23058642578125,1.9729267973870037,-9.599982349029183,0.343972098586522
1700007860203532500,10.240532470703124,1.9655134523905813,-9.601527824905514,0.3432711107103154
1700007860213478400,10.250478515625,1.9582240260347723,-9.603041736599803,0.3425448787949979
1700007860223425300,10.26042529296875,1.9512952496848999,-9.604490181842445,0.34146446314714846
1700007860233371100,10.27037109375,1.9450572320781647,-9.605786651393771,0.340575332287699
1700007860243318300,10.280318359375,1.9397674551069735,-9.606890228721499,0.3396272743152454
1700007860253264400,10.290264404296876,1.9351757434025405,-9.607871640974283,0.33808574396166946
1700007860263210200,10.300210205078125,1.9307589498735964,-9.608824411654473,0.3362273662112653
1700007860273157400,10.310157470703125,1.9265629594884812,-9.609761984765528,0.3335100700765848
1700007860283103500,10.320103515625,1.9234348905958234,-9.610483869299292,0.33071879539024085
1700007860293050400,10.33005029296875,1.9211762980140745,-9.610987142646312,0.3292048106307164
1700007860302996500,10.33999658203125,1.918488812495768,-9.611560558620095,0.32814470711853355
1700007860312942300,10.3499423828125,1.9151650749005376,-9.612268999150395,0.32678993150871244
1700007860322889200,10.35988916015625,1.912916273060441,-9.612776948672533,0.3250702315766364
1700007860332835300,10.36983544921875,1.9115834170214832,-9.613074470314382,0.3240784440603107
1700007860342782200,10.3797822265625,1.9110006486974656,-9.613225861483812,0.32303014058377594
1700007860352728300,10.389728271484374,1.9117010520517825,-9.61313701415658,0.3215056709628552
1700007860362674400,10.39967431640625,1.9116857083521783,-9.613186113995313,0.3201308389456943
1700007860372621300,10.409621337890625,1.911989221343398,-9.61315454981327,0.31922409936431795
1700007860382567400,10.4195673828125,1.9139666588962077,-9.612776364150642,0.31881796624884007
1700007860392514600,10.4295146484375,1.9140726034887134,-9.612737201184034,0.31932562351003285
1700007860402460400,10.43946044921875,1.9110953412435947,-9.613296588632464,0.3203311838233843
1700007860412406500,10.449406494140625,1.9069864446200429,-9.614080432486533,0.3213127787392586
1700007860422353200,10.459353271484375,1.9034009873487054,-9.614746202918887,0.322674568611756
1700007860432299300,10.46929931640625,1.9004405301079152,-9.615278117838502,0.3242254513155669
1700007860442246400,10.479246337890626,1.8983732223145662,-9.615632922625542,0.3258172505516559
1700007860452192300,10.489192138671875,1.8973248823054134,-9.615781975707412,0.3275535362923518
1700007860462138400,10.499138427734374,1.8969184934616088,-9.615815293455123,0.3289701616246253
1700007860472085500,10.50908544921875,1.8970317445777356,-9.615758010309934,0.32992662209924306
1700007860482031400,10.51903125,1.8970903428971766,-9.61572995325923,0.33045214381068944
1700007860491978500,10.528978515625,1.8972469947636126,-9.615682606986164,0.33095169083066284
1700007860501924400,10.53892431640625,1.8962297805450856,-9.615869653990865,0.33125918587725606
1700007860511870500,10.548870361328126,1.8937842870891093,-9.61636299046576,0.3309814649144187
1700007860521817300,10.5588173828125,1.891432024874538,-9.616859834071994,0.32996341044567523
1700007860531763200,10.56876318359375,1.889634327802807,-9.617268999394774,0.3283369052223861
1700007860541710300,10.57871044921875,1.888912004877627,-9.617495209366082,0.32583745308946815
1700007860551656400,10.588656494140626,1.8892771849282084,-9.617529696157574,0.32270671731568873
1700007860561602300,10.598602294921875,1.8907656699202953,-9.617364276462792,0.3188936618335545
1700007860571549400,10.608549560546875,1.8929962054513394,-9.617058571514487,0.31484763784576203
1700007860581495300,10.618495361328126,1.8954045817673206,-9.616709027424454,0.3109757648484781
1700007860591442400,10.6284423828125,1.8978258175648748,-9.616352469071746,0.30727256294898686
1700007860601388500,10.638388427734375,1.8995069025196134,-9.616134442406892,0.30371653270153326
1700007860611334400,10.64833447265625,1.9011231055445967,-9.615935704964398,0.29989293755907565
1700007860621281300,10.65828125,1.9034471645779907,-9.615602527487278,0.2957394346088171
1700007860631227400,10.668227294921875,1.9065246723271905,-9.61511269814372,0.2917794084040448
1700007860641174300,10.67817431640625,1.909683136358112,-9.614586628443002,0.2884318150091916
1700007860651120400,10.688120361328124,1.9135184767372906,-9.613907998529076,0.2856884528514929
1700007860661066200,10.698066162109376,1.9178614743776619,-9.613114802324771,0.28321455528493966
1700007860671013400,10.708013427734375,1.9226457860447466,-9.612220483833552,0.2812013705653138
1700007860680959500,10.71795947265625,1.9278183663770556,-9.611226796621084,0.2796871483437717
1700007860690906400,10.72790625,1.9334578335687518,-9.610117958596348,0.2788955961072817
1700007860700852500,10.7378525390625,1.9393553671747445,-9.608925533941388,0.2790164642742835
1700007860710798300,10.74779833984375,1.9452356573849916,-9.607719665282964,0.2796093156008981
1700007860720745200,10.7577451171875,1.9511735230013727,-9.606489831227064,0.2805128403118811
1700007860730691300,10.76769140625,1.9570203493334353,-9.605277532827854,0.28123291648104787
1700007860740638200,10.77763818359375,1.962799371126294,-9.604076340344548,0.2819479876815341
1700007860750584300,10.787584228515625,1.9681363482400773,-9.602968671363591,0.2825545387399383
1700007860760530400,10.797530517578124,1.9725015577122569,-9.602054479128121,0.28320335803749036
1700007860770477300,10.807477294921876,1.9756063918597995,-9.601391046783327,0.2839890833213925
1700007860780423400,10.81742333984375,1.9776000498950481,-9.600958500584959,0.28476830579927187
1700007860790370600,10.82737060546875,1.9793426557786762,-9.600573885181547,0.28563420191360633
1700007860800316400,10.83731640625,1.9817641838371753,-9.60000631442666,0.2878805012693629
1700007860810262500,10.847262451171876,1.984285372877866,-9.599366847479343,0.29175663031665605
1700007860820209200,10.857209228515625,1.9856690823212264,-9.598982816597818,0.2950696455884725
1700007860830155300,10.8671552734375,1.9870023767516016,-9.598639117726684,0.29718674734029915
1700007860840102400,10.877102294921874,1.989041042972356,-9.59815805621147,0.2990796301485039
1700007860850048300,10.88704833984375,1.991368609137088,-9.597613866332173,0.30105977111505344
1700007860859994400,10.896994384765625,1.9952112560398876,-9.596762217938899,0.3027843664179556
1700007860869941500,10.90694140625,1.9999619576983152,-9.595734043934941,0.30408156662164254
1700007860879887400,10.916887451171876,2.004678757087141,-9.594703531843424,0.3054490190499462
1700007860889834500,10.92683447265625,2.0102055576846003,-9.593504677447676,0.30677144502643494
1700007860899780400,10.9367802734375,2.016371679098904,-9.592160277101398,0.30831893019676204
1700007860909726500,10.9467265625,2.0203126718096436,-9.591281156179308,0.3099366675917059
1700007860919673300,10.95667333984375,2.022748666784912,-9.590729367515443,0.3110751335697248
1700007860929619200,10.966619140625,2.025611362739652,-9.590092823177576,0.3120855892539024
1700007860939566300,10.97656640625,2.0291031503781674,-9.589315993586181,0.31328963128142057
1700007860949512400,10.986512451171874,2.0329737082011996,-9.58844388692677,0.31486868063379075
1700007860959458300,10.996458251953126,2.0373069150999186,-9.587462474673986,0.31676337180659175
1700007860969405400,11.006405517578125,2.042061270020157,-9.586376433002949,0.3190274442810565
1700007860979351300,11.016351318359375,2.0466268243700263,-9.585330723342299,0.32118060372695323
1700007860989298400,11.02629833984375,2.0504574885740876,-9.584446341723202,0.32315804127976294
1700007860999244500,11.03624462890625,2.054001298660785,-9.58361281350851,0.32531394067201763
1700007861009190400,11.0461904296875,2.0578033212922513,-9.582709142667055,0.32790165561027823
1700007861019137300,11.05613720703125,2.0616708103753627,-9.581782090950012,0.33066165837552397
1700007861029083400,11.06608349609375,2.065608442085236,-9.580832242879271,0.33356768201533704
1700007861039030300,11.0760302734375,2.0702470616713167,-9.579693594238162,0.33752982711195945
1700007861048976400,11.085976318359375,2.0744198173113166,-9.578618658483029,0.3424261477861553
1700007861058922200,11.095922119140624,2.0779991371028124,-9.577620879617333,0.348513906734623
1700007861068869400,11.105869384765626,2.0813854185402394,-9.57662076266408,0.35569742503054436
1700007861078815500,11.1158154296875,2.0840876632362604,-9.575718260866402,0.3641593657644465
1700007861088762600,11.1257626953125,2.085583747012913,-9.575027355992793,0.3736315429868176
1700007861098708700,11.135708740234374,2.0858578877791762,-9.57458604196608,0.38323487230818715
1700007861108654800,11.14565478515625,2.085312674986571,-9.574353986775874,0.391924740046449
1700007861118601500,11.1556015625,2.0848380432121454,-9.574160510030389,0.39907278517019
1700007861128547600,11.165547607421875,2.0845032582998275,-9.573999766510724,0.40463721436429767
1700007861138494700,11.17549462890625,2.0837772821128366,-9.57397112493813,0.4091234198676422
1700007861148440600,11.185440673828126,2.081510506224632,-9.57430488693714,0.4127811386575922
1700007861158386700,11.19538671875,2.0771404744468627,-9.57509048435688,0.4165478707799688
1700007861168333600,11.20533349609375,2.071046541485935,-9.576219196125864,0.4208875804847106
1700007861178279700,11.21527978515625,2.063445711093396,-9.577653028321265,0.4256139879520982
1700007861188226800,11.225226806640626,2.0541712484002113,-9.579421791559458,0.43059689093120396
1700007861198172700,11.235172607421875,2.0445159696958957,-9.58128232473433,0.4351587554866448
1700007861208119600,11.24511962890625,2.035766115398705,-9.583005495265125,0.43825778094790874
1700007861218065700,11.255065673828126,2.028315507131815,-9.584524083134532,0.43958033478856084
1700007861228011500,11.265011474609375,2.0225591355621813,-9.585742226752638,0.43958106544092296
1700007861237958700,11.274958740234375,2.017903272580355,-9.586772154322267,0.4384651766208932
1700007861247904500,11.284904541015624,2.0136314404800535,-9.587737784484029,0.43701782735679295
1700007861257851600,11.2948515625,2.0106163304425775,-9.588457330930233,0.4350489019040018
1700007861267797800,11.3047978515625,2.0092823053598403,-9.5888729259938,0.43204168291203676
1700007861277743600,11.31474365234375,2.0088421603769064,-9.589167525026202,0.4275646470958367
1700007861287690800,11.324690673828124,2.0094464098803697,-9.58930138053894,0.42171234087105836
1700007861297636600,11.33463671875,2.010085146175325,-9.589500117981434,0.4140684385217726
1700007861307583500,11.34458349609375,2.0112987597487866,-9.589587211742996,0.40607762243095785
1700007861317529600,11.354529541015625,2.0133640217155215,-9.58943348248601,0.3994548798229545
1700007861327475500,11.364475341796876,2.014627027388662,-9.58941185517609,0.3935065658777952
1700007861337422600,11.374422607421875,2.0136314404800535,-9.589839725199342,0.388112817075476
1700007861347368700,11.38436865234375,2.0122877707861364,-9.590282792791724,0.3841518775552511
1700007861357315600,11.394315673828125,2.011199098766595,-9.59058908226192,0.3821843403419479
1700007861367261700,11.40426171875,2.0104441887460647,-9.59077671378851,0.3814542359691113
1700007861377207600,11.41420751953125,2.009715874471515,-9.590900632429122,0.38212694759890437
1700007861387154700,11.42415478515625,2.0075456908255815,-9.591285247832536,0.383918251462467
1700007861397100800,11.434100830078124,2.0051878756530583,-9.591655250188708,0.38695696157123893
1700007861407047400,11.44404736328125,2.002761086897552,-9.591993688362836,0.3911268311344087
1700007861416993500,11.45399365234375,1.9982525234319268,-9.59273486211896,0.3959716773496941
1700007861426939600,11.463939697265625,1.99080089225173,-9.594103227862716,0.4003512076081708
1700007861436886500,11.473886474609374,1.9826906510323286,-9.595617724078894,0.4042689655737951
1700007861446832600,11.48383251953125,1.9752531945079563,-9.596994273129106,0.40800453537292775
1700007861456779800,11.49377978515625,1.968225633958727,-9.598284897461532,0.41160325398463754
1700007861466725600,11.5037255859375,1.9616005167305468,-9.599491935163735,0.4150609566904604
1700007861476671700,11.513671630859376,1.9556028837509452,-9.600555180481075,0.4187398278662935
1700007861486618600,11.52361865234375,1.950224697843939,-9.60149976785481,0.4221856940038502
1700007861496564700,11.533564697265625,1.9456398542717097,-9.6022824426651,0.4254914575509727
1700007861506511600,11.54351171875,1.9418129894599316,-9.602931261962652,0.4283095106463879
1700007861516457500,11.55345751953125,1.939316788730025,-9.603318799975513,0.43093598669245836
1700007861526403600,11.563403564453125,1.9374059866726396,-9.60362275135815,0.4327868021909147
1700007861536350700,11.573350830078125,1.9353660052776336,-9.603986323973537,0.43381647403221574
1700007861546296600,11.583296630859374,1.9329510530903935,-9.604470892620085,0.4338841689735651
1700007861556243700,11.59324365234375,1.930600106050074,-9.604977088576554,0.43312600755002345
1700007861566189600,11.603189453125,1.9285846745744346,-9.60547159409523,0.431140678951703
1700007861576135700,11.6131357421875,1.927612614671886,-9.605800679919122,0.4281217329893261
1700007861586082800,11.623082763671874,1.9276058926701545,-9.605978374573588,0.42416097613219167
1700007861596028700,11.633028564453125,1.9279136434450745,-9.60610404677987,0.4198903861409053
1700007861605975600,11.6429755859375,1.92853732830137,-9.60618061914742,0.41525914614368226
1700007861615921700,11.652921630859375,1.9289165368773042,-9.606320319879055,0.41018885714206843
1700007861625868500,11.66286865234375,1.9283434131644666,-9.606657589009403,0.4049722915375605
1700007861635814700,11.672814697265625,1.9271819681696594,-9.607120530346036,0.39951103045698255
1700007861645760500,11.682760498046875,1.9260848205827175,-9.6075589217633,0.3942105859613046
1700007861655707600,11.692707763671875,1.9246303839907049,-9.608055180847645,0.3891443155476823
1700007861665653800,11.70265380859375,1.922920803593844,-9.608592940986156,0.38429070150405165
1700007861675600600,11.7126005859375,1.921257546556741,-9.60910907381475,0.37968638604637234
1700007861685546800,11.722546630859375,1.9200176294982432,-9.609525837922096,0.37539760281126944
1700007861695492900,11.732492919921874,1.919259212346375,-9.60983446547985,0.37135585313979536
1700007861705439500,11.742439453125,1.9187125382490455,-9.610091655111312,0.36751207372583444
1700007861715385600,11.752385498046875,1.9179408232241868,-9.610400867190956,0.36346210421528663
1700007861725332700,11.762332763671875,1.9165918928332626,-9.610826983648538,0.3593138619620353
1700007861735278600,11.772278564453124,1.9150087152950463,-9.611296939247847,0.3551669348830357
1700007861745224700,11.782224609375,1.913366793306917,-9.611771571022272,0.3511303728433326
1700007861755171600,11.792171630859375,1.911899789494276,-9.61220353269875,0.347271797719039
1700007861765117700,11.80211767578125,1.910310474476218,-9.612651860988139,0.34355982799120244
1700007861775064800,11.81206494140625,1.9078434998407958,-9.613263270884751,0.34011677486523983
1700007861785010700,11.8220107421875,1.904514647679031,-9.614030748125911,0.3370875632371753
1700007861794956800,11.831956787109375,1.9004539741113782,-9.614965983149409,0.33331009052507576
1700007861804903400,11.8419033203125,1.8975300494886933,-9.615693712902068,0.3289995703822002
1700007861814849500,11.851849609375,1.896256960812956,-9.616048517689109,0.32588856222219764
1700007861824796700,11.861796630859375,1.894421123687923,-9.616466450840234,0.3242418544610962
1700007861834742500,11.871742431640625,1.8915711410842835,-9.617098319002986,0.32212639667708426
1700007861844689700,11.881689697265625,1.8892578957058488,-9.617643677926063,0.3193836373075843
1700007861854635800,11.8916357421875,1.887040219656378,-9.618165071451664,0.3168508674269542
1700007861864581600,11.90158154296875,1.8843612097054718,-9.618775896826385,0.3142321728285402
1700007861874528800,11.91152880859375,1.8822822114743292,-9.619284430870414,0.3110832072783261
1700007861884474600,11.921474609375,1.8797832342654466,-9.619878305110335,0.30774829070195553
1700007861894421500,11.93142138671875,1.877672087330371,-9.620395606982708,0.3044611405237578
1700007861904367600,11.94136767578125,1.8786891554184257,-9.62029623826146,0.3012932876099832
1700007861914313500,11.9513134765625,1.8806265532217918,-9.620003392794727,0.29864410654176027
1700007861924260600,11.961260498046874,1.8804019506856797,-9.620109191256761,0.29659860872142013
1700007861934206700,11.971206787109375,1.8800379396788776,-9.620249476510287,0.29435747873112555
1700007861944153600,11.981153564453125,1.881454528478533,-9.620040217673777,0.2921117090983316
1700007861954099700,11.991099609375,1.883598116378486,-9.619683074799179,0.2900304641111754
1700007861964045600,12.001045654296876,1.8857035642251372,-9.619330608099698,0.2880670185511
1700007861973992700,12.01099267578125,1.887206954525411,-9.619089200559259,0.2863015067159198
1700007861983938800,12.020938720703125,1.888550624219328,-9.61888227981031,0.28442933790218083
1700007861993885400,12.030885498046874,1.889741441439092,-9.6187127684623,0.28223749041371043
1700007862003831600,12.04083154296875,1.890643943236768,-9.618613399741053,0.2794970508654602
1700007862013777700,12.050777587890625,1.8917426982589065,-9.618487143012882,0.2764398187193088
1700007862023724500,12.060724609375,1.8933182770125567,-9.618268531826137,0.2731978593897074
1700007862033670700,12.070670654296874,1.894823859269917,-9.618068625339864,0.26983176222378386
1700007862043617800,12.08061767578125,1.8968892673671245,-9.617757659694552,0.2663049580708146
1700007862053563600,12.090563720703125,1.8997003792650997,-9.617291211226583,0.2631586411354132
1700007862063510800,12.1005107421875,1.902382604086399,-9.616834699630736,0.2604505329541862
1700007862073456600,12.11045654296875,1.905096977611631,-9.616371758294106,0.25767138709705323
1700007862083402200,12.12040234375,1.9079289861671624,-9.615890112257004,0.2546415178818628
1700007862093349000,12.13034912109375,1.9106318153850732,-9.615426586398481,0.25183111836994065
1700007862103295200,12.140295166015624,1.9130911912359296,-9.615006899681687,0.24928042924012989
1700007862113242000,12.1502421875,1.9155569968275725,-9.614574938005209,0.24691762736523523
1700007862123188200,12.160188232421875,1.9175259588129818,-9.614240591484307,0.24467266145003957
1700007862133134300,12.17013427734375,1.9192168345093725,-9.6139576828897,0.24256122225401922
1700007862143081200,12.180081298828124,1.9215308105401694,-9.61354559495747,0.2405342647373676
1700007862153027300,12.19002734375,1.9242222415812313,-9.613054012048243,0.23861604655850677
1700007862162974500,12.199974365234375,1.9265635440103708,-9.612630233678221,0.23675991556411607
1700007862172920300,12.20992041015625,1.9282123341307043,-9.612355508390069,0.23448789724521338
1700007862182866400,12.219866455078124,1.9290410400398075,-9.612247956362365,0.2320764339230023
1700007862192813000,12.22981298828125,1.9298766140811143,-9.61214683407545,0.2293037178066559
1700007862202759200,12.23975927734375,1.930939713267982,-9.612007133343814,0.22626038632169365
1700007862212706300,12.249706298828125,1.9321942433737218,-9.611824177992343,0.2233257028429769
1700007862222652200,12.259652099609376,1.9334025962501764,-9.611640638118981,0.22074576935237272
1700007862232599300,12.269599365234376,1.9344556124344467,-9.611474633902311,0.2186683420238085
1700007862242545400,12.27954541015625,1.9354716576091944,-9.611302199944854,0.21724084823764858
1700007862252491300,12.2894912109375,1.93676695811674,-9.611059623360633,0.21643656438374892
1700007862262438400,12.2994384765625,1.9383871066644787,-9.61074924223721,0.21582217707876114
1700007862272384300,12.30938427734375,1.939418933930248,-9.610552842882274,0.21521869476027786
1700007862282331100,12.3193310546875,1.9391577987760305,-9.61061597124636,0.21479144579153506
1700007862292277200,12.32927734375,1.9376520703881979,-9.610924014282226,0.21460125698167828
1700007862302223000,12.33922314453125,1.9367405085012315,-9.611119829115271,0.2140015192565508
1700007862312170200,12.349170166015625,1.9377809574648737,-9.610894788187741,0.21473619020665063
1700007862322116000,12.3591162109375,1.9389120073214172,-9.610610126027463,0.21716878764843567
1700007862332063200,12.369063232421874,1.938541128182411,-9.610639936643839,0.21925003263559192
1700007862342009300,12.37900927734375,1.938399381624162,-9.610632922381162,0.2207602545354515
1700007862351955200,12.388955078125,1.938754624802619,-9.61052595487535,0.22229904494266955
1700007862361902300,12.39890234375,1.9387449801914394,-9.610493806171416,0.22376751006003467
1700007862371848400,12.408848388671874,1.939360774002224,-9.610340661436318,0.2249911518371664
1700007862381795000,12.418795166015625,1.939579823580384,-9.610268180721997,0.22614269649246707
1700007862391741200,12.4287412109375,1.939369103439152,-9.610293315163254,0.22690288547631352
1700007862401688300,12.438688232421875,1.942385236389935,-9.609662616044282,0.22780699470918625
1700007862411634200,12.44863427734375,1.9459876447960733,-9.608900399500131,0.2291802010248415
1700007862421580300,12.458580322265625,1.9462492183417082,-9.60880979860723,0.23080310778524726
1700007862431527200,12.468527099609375,1.9449749606221913,-9.609030163359641,0.2323895549927838
1700007862441473300,12.478473388671874,1.9448932736881077,-9.60901262770295,0.23379087315807118
1700007862451420400,12.48842041015625,1.9452251359909771,-9.608910336372256,0.23523785709599032
1700007862461366300,12.4983662109375,1.94503341281116,-9.608906244719028,0.23701372592840342
1700007862471312400,12.5083125,1.9444592661850153,-9.608979309955238,0.2387350698282942
1700007862481259300,12.51825927734375,1.9436964651189743,-9.60908803102672,0.24047206795504314
1700007862491205000,12.528205078125,1.943145991629362,-9.609155835565923,0.24222552402624858
1700007862501152300,12.53815234375,1.9426367269329725,-9.609223640105128,0.2436548261770047
1700007862511098000,12.54809814453125,1.9422173324771224,-9.609269232812522,0.24517619052538647
1700007862521044200,12.558044189453126,1.9424808057188987,-9.609184477138518,0.24640156760187817
1700007862530991400,12.567991455078126,1.9435260769881306,-9.608953006470204,0.24720588798839596
1700007862540937200,12.577937255859375,1.9449824132762847,-9.608644963434338,0.247770810128469
1700007862550884400,12.58788427734375,1.9462728914782403,-9.608365561971068,0.24853118177540598
1700007862560830500,12.59783056640625,1.9469079745113849,-9.608213001757859,0.24939923331420868
1700007862570777000,12.607777099609375,1.9476013636030256,-9.608055180847645,0.2500751050154678
1700007862580723200,12.61772314453125,1.9490201443597672,-9.607753567552566,0.2505255339303985
1700007862590669000,12.6276689453125,1.9505751187168061,-9.607426819816231,0.2510413744980469
